74CSV  	
// AQ6374 OPTICAL SPECTRUM ANALYZER //                  
35
"CTRWL",1475.000000
"SPAN", 550.000000
"START WL",1200.000000
"STOP WL",1750.000000
"WLFREQ", 0
"REFL",-10.0
"LSCL",10.0
"RESLN",0.500
"AVG",   1
"SMPLAUTO",      1
"SMPL",       5501
"SMPLINTVL",0.1000
"HIGH1"
"MEAS"
"LSUNT",1
"NMSKH","OFF"
"RESCOR",0
"SMOOTH",0
"MEASWL",0
"SWPSPD",1
"MODELNAME","AQ6374"
"CHGPT",          0
"RESCAL0_0",       9917
"RESCAL0_1",      -1276
"RESCAL0_2",    1976740
"RESCAL1_0",      10084
"RESCAL1_1",          0
"RESCAL1_2",          0
"CORESIZE", 0






"[TRACE DATA]"
1200.0000,-210.000
1200.1000,-210.000
1200.2000, -82.116
1200.3000, -82.970
1200.4000,-210.000
1200.5000, -77.858
1200.6000, -80.681
1200.7000, -91.802
1200.8000,-210.000
1200.9000, -80.519
1201.0000,-210.000
1201.1000, -81.720
1201.2000, -78.203
1201.3000, -83.895
1201.4000, -77.890
1201.5000, -80.831
1201.6000,-210.000
1201.7000,-210.000
1201.8000, -79.118
1201.9000, -86.192
1202.0000, -89.058
1202.1000, -82.565
1202.2000, -81.036
1202.3000, -80.120
1202.4000, -84.443
1202.5000, -80.700
1202.6000, -84.252
1202.7000, -81.402
1202.8000, -82.215
1202.9000, -85.014
1203.0000, -95.712
1203.1000,-210.000
1203.2000, -91.498
1203.3000, -82.433
1203.4000, -80.727
1203.5000, -78.895
1203.6000, -81.220
1203.7000,-210.000
1203.8000,-210.000
1203.9000, -84.111
1204.0000, -84.433
1204.1000, -78.352
1204.2000, -83.641
1204.3000,-210.000
1204.4000,-210.000
1204.5000,-210.000
1204.6000, -77.741
1204.7000,-210.000
1204.8000, -81.096
1204.9000, -84.850
1205.0000, -77.717
1205.1000, -86.072
1205.2000, -82.405
1205.3000, -90.154
1205.4000, -82.527
1205.5000, -84.824
1205.6000,-210.000
1205.7000, -78.419
1205.8000, -86.772
1205.9000, -82.336
1206.0000, -83.162
1206.1000, -82.152
1206.2000, -88.405
1206.3000, -80.299
1206.4000,-210.000
1206.5000,-210.000
1206.6000, -91.504
1206.7000,-210.000
1206.8000,-210.000
1206.9000, -90.087
1207.0000, -81.534
1207.1000, -79.476
1207.2000, -85.754
1207.3000,-210.000
1207.4000, -98.225
1207.5000, -87.065
1207.6000,-210.000
1207.7000,-210.000
1207.8000, -79.929
1207.9000, -83.020
1208.0000,-104.098
1208.1000,-210.000
1208.2000, -84.457
1208.3000, -80.575
1208.4000, -80.388
1208.5000, -80.712
1208.6000, -84.008
1208.7000,-210.000
1208.8000, -81.187
1208.9000, -81.667
1209.0000, -77.786
1209.1000, -84.144
1209.2000, -86.095
1209.3000,-210.000
1209.4000,-210.000
1209.5000, -94.147
1209.6000, -82.975
1209.7000,-210.000
1209.8000, -78.837
1209.9000, -84.884
1210.0000, -85.430
1210.1000,-210.000
1210.2000, -88.907
1210.3000, -82.459
1210.4000,-210.000
1210.5000, -84.521
1210.6000,-210.000
1210.7000, -82.657
1210.8000, -90.946
1210.9000, -82.076
1211.0000, -80.134
1211.1000, -77.278
1211.2000,-210.000
1211.3000, -84.732
1211.4000, -78.539
1211.5000, -80.638
1211.6000,-210.000
1211.7000,-210.000
1211.8000, -80.494
1211.9000, -80.086
1212.0000, -89.945
1212.1000, -87.878
1212.2000, -82.489
1212.3000, -81.805
1212.4000, -77.417
1212.5000, -80.713
1212.6000,-210.000
1212.7000, -82.400
1212.8000, -81.836
1212.9000,-210.000
1213.0000, -79.697
1213.1000,-210.000
1213.2000, -78.986
1213.3000, -90.446
1213.4000, -96.158
1213.5000,-210.000
1213.6000, -80.265
1213.7000, -80.277
1213.8000, -86.000
1213.9000, -81.205
1214.0000, -84.534
1214.1000, -79.006
1214.2000,-210.000
1214.3000,-210.000
1214.4000, -80.461
1214.5000, -80.390
1214.6000,-210.000
1214.7000, -86.702
1214.8000, -88.282
1214.9000, -81.791
1215.0000, -77.248
1215.1000, -85.763
1215.2000, -87.669
1215.3000, -82.272
1215.4000, -78.339
1215.5000, -82.339
1215.6000,-210.000
1215.7000,-210.000
1215.8000,-210.000
1215.9000, -78.757
1216.0000, -83.085
1216.1000,-210.000
1216.2000, -92.620
1216.3000, -87.299
1216.4000,-210.000
1216.5000, -87.999
1216.6000, -80.123
1216.7000,-210.000
1216.8000,-210.000
1216.9000, -78.232
1217.0000, -80.183
1217.1000, -78.943
1217.2000, -86.736
1217.3000, -91.910
1217.4000, -87.969
1217.5000, -80.368
1217.6000, -79.951
1217.7000, -80.824
1217.8000,-210.000
1217.9000,-210.000
1218.0000, -80.435
1218.1000,-210.000
1218.2000, -82.771
1218.3000,-210.000
1218.4000,-210.000
1218.5000, -85.185
1218.6000,-210.000
1218.7000,-210.000
1218.8000,-210.000
1218.9000, -82.845
1219.0000,-210.000
1219.1000, -80.048
1219.2000, -80.935
1219.3000, -88.954
1219.4000, -80.853
1219.5000, -82.981
1219.6000,-210.000
1219.7000, -84.667
1219.8000, -79.291
1219.9000,-210.000
1220.0000, -83.706
1220.1000, -86.979
1220.2000, -83.266
1220.3000, -98.279
1220.4000, -78.810
1220.5000, -83.262
1220.6000,-210.000
1220.7000, -85.593
1220.8000, -79.804
1220.9000, -87.650
1221.0000, -91.018
1221.1000, -84.147
1221.2000, -84.059
1221.3000, -78.828
1221.4000,-210.000
1221.5000, -93.106
1221.6000, -84.933
1221.7000,-210.000
1221.8000,-210.000
1221.9000, -88.330
1222.0000, -77.107
1222.1000, -82.246
1222.2000, -81.025
1222.3000, -80.490
1222.4000, -78.541
1222.5000,-210.000
1222.6000,-210.000
1222.7000, -84.570
1222.8000, -79.769
1222.9000, -85.047
1223.0000, -82.538
1223.1000, -81.697
1223.2000, -78.709
1223.3000, -78.409
1223.4000, -82.626
1223.5000,-210.000
1223.6000, -82.503
1223.7000, -81.827
1223.8000, -83.641
1223.9000, -83.760
1224.0000, -82.530
1224.1000,-210.000
1224.2000, -91.563
1224.3000, -86.710
1224.4000, -83.117
1224.5000, -82.125
1224.6000, -82.379
1224.7000,-210.000
1224.8000, -89.388
1224.9000, -86.943
1225.0000, -81.360
1225.1000, -78.937
1225.2000, -83.618
1225.3000, -80.088
1225.4000, -81.129
1225.5000, -78.187
1225.6000, -78.427
1225.7000, -80.116
1225.8000, -80.703
1225.9000, -81.205
1226.0000, -83.828
1226.1000, -87.278
1226.2000,-103.006
1226.3000, -82.039
1226.4000, -93.009
1226.5000,-210.000
1226.6000, -88.278
1226.7000, -82.493
1226.8000, -83.405
1226.9000, -77.652
1227.0000, -78.537
1227.1000,-210.000
1227.2000, -77.937
1227.3000, -79.570
1227.4000, -80.457
1227.5000, -82.029
1227.6000,-210.000
1227.7000, -82.694
1227.8000,-101.294
1227.9000, -79.053
1228.0000, -79.833
1228.1000, -82.476
1228.2000, -77.268
1228.3000, -81.620
1228.4000, -82.139
1228.5000,-210.000
1228.6000, -81.711
1228.7000, -79.647
1228.8000,-210.000
1228.9000, -83.857
1229.0000, -81.005
1229.1000, -81.969
1229.2000,-210.000
1229.3000, -82.078
1229.4000, -81.952
1229.5000, -79.977
1229.6000, -82.318
1229.7000, -78.867
1229.8000, -77.924
1229.9000, -95.346
1230.0000, -78.838
1230.1000,-210.000
1230.2000, -80.604
1230.3000, -81.656
1230.4000,-210.000
1230.5000,-210.000
1230.6000, -84.728
1230.7000, -79.449
1230.8000, -81.604
1230.9000, -81.004
1231.0000,-210.000
1231.1000, -79.826
1231.2000, -79.269
1231.3000, -86.774
1231.4000, -82.629
1231.5000,-210.000
1231.6000, -87.243
1231.7000, -80.848
1231.8000,-210.000
1231.9000, -79.752
1232.0000,-210.000
1232.1000, -81.034
1232.2000, -79.317
1232.3000, -77.914
1232.4000, -76.162
1232.5000, -77.897
1232.6000, -80.710
1232.7000, -88.062
1232.8000,-210.000
1232.9000,-210.000
1233.0000, -79.969
1233.1000, -83.878
1233.2000, -81.628
1233.3000, -84.811
1233.4000,-210.000
1233.5000, -93.687
1233.6000, -79.444
1233.7000, -84.669
1233.8000,-210.000
1233.9000,-210.000
1234.0000,-210.000
1234.1000, -82.678
1234.2000, -78.710
1234.3000, -83.417
1234.4000, -87.044
1234.5000, -84.256
1234.6000, -82.970
1234.7000, -76.699
1234.8000, -81.756
1234.9000, -84.495
1235.0000, -81.456
1235.1000, -82.594
1235.2000, -80.671
1235.3000, -77.357
1235.4000, -78.030
1235.5000, -81.117
1235.6000, -77.419
1235.7000, -82.315
1235.8000, -84.509
1235.9000, -81.614
1236.0000, -78.785
1236.1000, -83.462
1236.2000, -81.833
1236.3000, -78.796
1236.4000, -78.662
1236.5000, -84.623
1236.6000, -84.464
1236.7000,-210.000
1236.8000, -78.219
1236.9000, -78.821
1237.0000, -80.141
1237.1000,-210.000
1237.2000, -83.130
1237.3000, -82.894
1237.4000, -78.278
1237.5000,-210.000
1237.6000,-210.000
1237.7000, -80.249
1237.8000, -81.495
1237.9000,-210.000
1238.0000, -89.995
1238.1000, -90.589
1238.2000, -79.705
1238.3000, -79.276
1238.4000, -81.773
1238.5000, -78.193
1238.6000, -76.845
1238.7000, -82.247
1238.8000,-210.000
1238.9000, -80.610
1239.0000, -86.247
1239.1000, -94.128
1239.2000, -81.449
1239.3000, -80.379
1239.4000, -79.547
1239.5000, -82.345
1239.6000, -87.115
1239.7000, -86.859
1239.8000, -83.050
1239.9000,-210.000
1240.0000,-210.000
1240.1000,-210.000
1240.2000, -82.614
1240.3000,-109.351
1240.4000, -86.321
1240.5000, -85.349
1240.6000,-210.000
1240.7000, -81.824
1240.8000, -83.546
1240.9000, -82.558
1241.0000, -78.146
1241.1000, -79.587
1241.2000, -83.461
1241.3000,-210.000
1241.4000,-210.000
1241.5000, -82.352
1241.6000,-210.000
1241.7000, -81.541
1241.8000, -84.506
1241.9000, -82.205
1242.0000, -84.333
1242.1000, -88.513
1242.2000, -86.887
1242.3000, -84.356
1242.4000, -79.246
1242.5000, -78.651
1242.6000, -80.300
1242.7000, -93.461
1242.8000,-210.000
1242.9000,-210.000
1243.0000, -80.691
1243.1000, -79.159
1243.2000, -82.962
1243.3000, -80.356
1243.4000, -84.049
1243.5000,-210.000
1243.6000, -83.422
1243.7000, -81.350
1243.8000, -86.718
1243.9000,-210.000
1244.0000, -86.948
1244.1000, -86.445
1244.2000, -82.587
1244.3000,-210.000
1244.4000, -81.079
1244.5000, -77.758
1244.6000, -88.961
1244.7000, -80.161
1244.8000, -78.567
1244.9000, -89.929
1245.0000, -85.109
1245.1000, -77.343
1245.2000,-210.000
1245.3000,-210.000
1245.4000, -80.311
1245.5000, -80.471
1245.6000, -79.583
1245.7000, -87.838
1245.8000, -81.223
1245.9000, -83.484
1246.0000, -79.001
1246.1000, -79.681
1246.2000, -79.149
1246.3000,-210.000
1246.4000, -82.203
1246.5000, -78.397
1246.6000, -81.086
1246.7000, -79.480
1246.8000, -79.487
1246.9000,-210.000
1247.0000, -82.830
1247.1000, -79.364
1247.2000, -83.529
1247.3000,-210.000
1247.4000,-210.000
1247.5000, -80.262
1247.6000, -81.038
1247.7000, -86.249
1247.8000, -79.557
1247.9000, -86.269
1248.0000, -88.205
1248.1000,-210.000
1248.2000,-210.000
1248.3000, -89.722
1248.4000, -79.450
1248.5000, -78.349
1248.6000,-210.000
1248.7000, -80.232
1248.8000, -87.361
1248.9000,-210.000
1249.0000, -84.401
1249.1000, -87.305
1249.2000, -83.131
1249.3000, -82.598
1249.4000, -77.681
1249.5000, -79.900
1249.6000, -82.559
1249.7000,-210.000
1249.8000, -82.767
1249.9000, -77.606
1250.0000, -77.785
1250.1000, -91.044
1250.2000, -79.234
1250.3000,-210.000
1250.4000, -87.121
1250.5000, -82.700
1250.6000, -78.244
1250.7000, -84.611
1250.8000,-210.000
1250.9000,-210.000
1251.0000,-210.000
1251.1000, -83.951
1251.2000, -80.776
1251.3000, -80.013
1251.4000, -80.482
1251.5000, -82.930
1251.6000, -83.908
1251.7000, -76.980
1251.8000, -84.531
1251.9000, -79.504
1252.0000,-210.000
1252.1000, -80.653
1252.2000, -87.058
1252.3000, -77.537
1252.4000,-210.000
1252.5000,-210.000
1252.6000,-210.000
1252.7000, -82.116
1252.8000, -82.853
1252.9000, -79.056
1253.0000, -80.622
1253.1000, -86.956
1253.2000, -80.905
1253.3000, -78.084
1253.4000, -82.802
1253.5000,-210.000
1253.6000,-210.000
1253.7000,-210.000
1253.8000,-210.000
1253.9000, -79.575
1254.0000,-210.000
1254.1000, -78.741
1254.2000,-210.000
1254.3000, -85.599
1254.4000, -79.487
1254.5000, -78.961
1254.6000, -83.713
1254.7000, -82.154
1254.8000, -79.263
1254.9000,-210.000
1255.0000, -77.549
1255.1000, -79.706
1255.2000, -77.670
1255.3000, -77.708
1255.4000,-210.000
1255.5000, -81.858
1255.6000, -81.245
1255.7000, -83.782
1255.8000, -81.236
1255.9000,-210.000
1256.0000, -80.586
1256.1000, -81.981
1256.2000, -88.782
1256.3000, -81.235
1256.4000, -78.993
1256.5000, -87.085
1256.6000, -81.499
1256.7000, -82.596
1256.8000, -83.091
1256.9000, -81.460
1257.0000,-210.000
1257.1000, -94.592
1257.2000,-210.000
1257.3000, -89.110
1257.4000, -80.522
1257.5000, -77.611
1257.6000, -85.967
1257.7000, -78.974
1257.8000, -79.428
1257.9000,-210.000
1258.0000, -78.959
1258.1000,-210.000
1258.2000, -78.815
1258.3000, -84.521
1258.4000, -91.100
1258.5000,-210.000
1258.6000, -85.800
1258.7000, -80.850
1258.8000, -82.404
1258.9000, -80.411
1259.0000, -80.802
1259.1000, -79.337
1259.2000, -79.563
1259.3000, -78.033
1259.4000, -86.049
1259.5000, -79.643
1259.6000, -76.833
1259.7000, -81.214
1259.8000, -78.530
1259.9000, -81.633
1260.0000, -79.611
1260.1000, -77.938
1260.2000, -83.854
1260.3000, -98.401
1260.4000,-210.000
1260.5000, -82.280
1260.6000,-210.000
1260.7000,-210.000
1260.8000, -89.945
1260.9000, -87.592
1261.0000, -80.088
1261.1000, -90.781
1261.2000, -79.169
1261.3000, -76.992
1261.4000,-210.000
1261.5000, -81.901
1261.6000, -86.988
1261.7000, -84.107
1261.8000, -79.042
1261.9000, -81.157
1262.0000, -81.020
1262.1000, -88.939
1262.2000, -83.793
1262.3000,-210.000
1262.4000, -79.948
1262.5000, -81.319
1262.6000, -81.026
1262.7000,-210.000
1262.8000,-210.000
1262.9000, -81.140
1263.0000, -81.565
1263.1000,-210.000
1263.2000,-210.000
1263.3000,-210.000
1263.4000, -81.028
1263.5000, -81.350
1263.6000, -79.624
1263.7000, -82.106
1263.8000, -82.335
1263.9000, -82.806
1264.0000, -82.027
1264.1000,-210.000
1264.2000, -83.068
1264.3000, -76.860
1264.4000, -98.762
1264.5000, -95.022
1264.6000, -84.479
1264.7000, -78.741
1264.8000, -85.868
1264.9000, -81.503
1265.0000, -79.711
1265.1000, -76.970
1265.2000, -77.611
1265.3000, -79.892
1265.4000, -88.705
1265.5000, -76.624
1265.6000,-210.000
1265.7000, -80.951
1265.8000, -86.382
1265.9000,-210.000
1266.0000, -81.855
1266.1000,-210.000
1266.2000,-210.000
1266.3000,-210.000
1266.4000, -88.327
1266.5000, -84.810
1266.6000,-210.000
1266.7000, -78.633
1266.8000, -78.326
1266.9000, -82.237
1267.0000, -81.053
1267.1000,-210.000
1267.2000,-210.000
1267.3000, -85.184
1267.4000, -79.378
1267.5000, -81.642
1267.6000,-210.000
1267.7000, -81.820
1267.8000, -87.284
1267.9000,-210.000
1268.0000, -80.837
1268.1000, -85.869
1268.2000, -90.549
1268.3000, -92.357
1268.4000, -80.859
1268.5000,-210.000
1268.6000, -80.264
1268.7000, -83.055
1268.8000, -82.922
1268.9000, -86.313
1269.0000, -81.654
1269.1000, -80.738
1269.2000, -81.431
1269.3000, -79.858
1269.4000, -78.631
1269.5000, -79.097
1269.6000,-210.000
1269.7000, -80.150
1269.8000, -83.344
1269.9000, -82.488
1270.0000, -80.390
1270.1000, -78.703
1270.2000,-210.000
1270.3000,-210.000
1270.4000, -82.332
1270.5000, -79.256
1270.6000, -76.945
1270.7000, -78.953
1270.8000, -79.319
1270.9000, -80.810
1271.0000, -83.069
1271.1000, -79.167
1271.2000, -79.350
1271.3000, -86.502
1271.4000, -87.854
1271.5000, -88.476
1271.6000,-210.000
1271.7000, -81.754
1271.8000, -82.554
1271.9000, -79.058
1272.0000, -78.000
1272.1000,-210.000
1272.2000, -81.541
1272.3000, -80.550
1272.4000, -79.991
1272.5000, -76.905
1272.6000, -76.979
1272.7000, -81.804
1272.8000,-210.000
1272.9000, -78.067
1273.0000, -82.891
1273.1000, -81.389
1273.2000, -82.532
1273.3000, -85.510
1273.4000, -81.370
1273.5000, -80.758
1273.6000, -94.351
1273.7000, -81.737
1273.8000, -78.447
1273.9000, -77.078
1274.0000, -77.306
1274.1000, -79.818
1274.2000, -81.223
1274.3000, -79.847
1274.4000, -82.551
1274.5000, -80.848
1274.6000, -81.716
1274.7000, -78.869
1274.8000, -79.794
1274.9000, -78.186
1275.0000,-210.000
1275.1000, -89.837
1275.2000,-210.000
1275.3000, -84.481
1275.4000,-210.000
1275.5000,-210.000
1275.6000, -78.359
1275.7000,-210.000
1275.8000, -79.281
1275.9000, -82.146
1276.0000,-210.000
1276.1000, -80.587
1276.2000, -96.640
1276.3000, -87.634
1276.4000, -87.383
1276.5000, -81.548
1276.6000, -76.444
1276.7000, -77.394
1276.8000, -76.992
1276.9000, -77.515
1277.0000, -79.647
1277.1000,-210.000
1277.2000, -77.401
1277.3000, -77.023
1277.4000, -82.880
1277.5000, -78.339
1277.6000, -80.313
1277.7000, -78.426
1277.8000, -79.427
1277.9000, -79.735
1278.0000, -81.713
1278.1000, -81.049
1278.2000,-210.000
1278.3000, -81.358
1278.4000, -83.185
1278.5000, -80.700
1278.6000, -80.614
1278.7000,-210.000
1278.8000, -79.011
1278.9000, -77.435
1279.0000,-210.000
1279.1000, -87.775
1279.2000, -78.276
1279.3000, -78.549
1279.4000, -78.141
1279.5000, -78.445
1279.6000, -83.399
1279.7000, -76.440
1279.8000, -80.318
1279.9000, -78.105
1280.0000, -81.695
1280.1000, -89.053
1280.2000,-210.000
1280.3000, -89.064
1280.4000, -78.152
1280.5000, -76.373
1280.6000, -78.046
1280.7000, -78.902
1280.8000, -81.742
1280.9000, -90.720
1281.0000, -82.336
1281.1000, -77.620
1281.2000, -94.431
1281.3000, -80.998
1281.4000, -81.436
1281.5000, -81.707
1281.6000, -80.209
1281.7000, -76.287
1281.8000, -77.011
1281.9000, -82.350
1282.0000, -83.279
1282.1000, -78.153
1282.2000, -79.506
1282.3000, -78.928
1282.4000, -97.716
1282.5000, -77.671
1282.6000, -88.357
1282.7000, -75.787
1282.8000, -79.798
1282.9000, -89.722
1283.0000,-210.000
1283.1000, -82.083
1283.2000, -78.747
1283.3000, -83.466
1283.4000, -78.070
1283.5000, -78.163
1283.6000, -85.912
1283.7000, -77.769
1283.8000, -80.995
1283.9000, -80.080
1284.0000, -79.183
1284.1000, -79.813
1284.2000, -81.205
1284.3000, -76.709
1284.4000, -77.999
1284.5000, -77.336
1284.6000, -81.890
1284.7000, -78.483
1284.8000, -77.910
1284.9000, -80.007
1285.0000, -78.597
1285.1000, -83.322
1285.2000, -80.063
1285.3000, -79.105
1285.4000, -79.912
1285.5000, -81.729
1285.6000,-210.000
1285.7000, -79.703
1285.8000,-210.000
1285.9000, -79.646
1286.0000, -87.707
1286.1000, -77.513
1286.2000, -81.730
1286.3000, -77.693
1286.4000, -78.438
1286.5000, -80.669
1286.6000, -78.952
1286.7000, -76.988
1286.8000, -82.884
1286.9000, -78.941
1287.0000, -80.214
1287.1000, -80.553
1287.2000, -79.250
1287.3000, -78.864
1287.4000,-210.000
1287.5000, -80.254
1287.6000, -76.268
1287.7000, -78.275
1287.8000, -77.509
1287.9000, -78.522
1288.0000, -79.547
1288.1000, -85.950
1288.2000,-210.000
1288.3000, -78.715
1288.4000, -77.466
1288.5000, -79.359
1288.6000, -80.027
1288.7000, -88.834
1288.8000, -91.238
1288.9000, -84.577
1289.0000, -76.644
1289.1000, -75.876
1289.2000, -76.894
1289.3000, -75.847
1289.4000, -76.679
1289.5000, -79.448
1289.6000, -78.968
1289.7000, -78.530
1289.8000, -80.011
1289.9000, -76.887
1290.0000, -76.720
1290.1000, -76.792
1290.2000, -77.950
1290.3000, -75.626
1290.4000, -80.437
1290.5000, -78.556
1290.6000, -75.871
1290.7000, -79.449
1290.8000, -75.671
1290.9000, -76.758
1291.0000, -75.351
1291.1000, -75.854
1291.2000, -78.347
1291.3000, -79.852
1291.4000, -77.884
1291.5000, -77.509
1291.6000, -78.579
1291.7000, -77.891
1291.8000, -77.827
1291.9000, -79.014
1292.0000, -76.864
1292.1000, -77.848
1292.2000, -75.362
1292.3000, -77.553
1292.4000, -77.339
1292.5000, -79.684
1292.6000,-210.000
1292.7000, -75.956
1292.8000, -79.804
1292.9000, -76.850
1293.0000, -77.144
1293.1000, -81.807
1293.2000, -77.945
1293.3000, -77.396
1293.4000, -80.647
1293.5000, -76.994
1293.6000, -77.797
1293.7000, -78.575
1293.8000, -77.593
1293.9000, -74.700
1294.0000, -76.955
1294.1000, -76.814
1294.2000, -79.261
1294.3000, -75.963
1294.4000, -76.197
1294.5000, -77.520
1294.6000, -79.019
1294.7000, -75.772
1294.8000, -76.396
1294.9000, -76.803
1295.0000, -77.929
1295.1000, -79.350
1295.2000, -76.426
1295.3000, -88.517
1295.4000, -78.416
1295.5000, -76.613
1295.6000, -76.774
1295.7000, -75.929
1295.8000, -77.562
1295.9000, -79.693
1296.0000, -76.862
1296.1000, -80.681
1296.2000, -78.696
1296.3000, -77.050
1296.4000, -75.886
1296.5000, -76.078
1296.6000, -79.215
1296.7000, -76.616
1296.8000, -76.245
1296.9000, -76.751
1297.0000, -76.422
1297.1000, -76.026
1297.2000, -79.900
1297.3000, -77.688
1297.4000, -76.404
1297.5000, -75.558
1297.6000, -78.757
1297.7000, -78.774
1297.8000, -80.166
1297.9000, -77.332
1298.0000, -78.393
1298.1000, -78.861
1298.2000, -76.474
1298.3000, -76.899
1298.4000, -78.817
1298.5000, -76.779
1298.6000, -78.411
1298.7000, -75.872
1298.8000, -76.366
1298.9000, -76.785
1299.0000, -76.872
1299.1000, -75.279
1299.2000, -76.740
1299.3000, -76.789
1299.4000, -78.582
1299.5000, -75.429
1299.6000, -77.953
1299.7000, -78.399
1299.8000, -76.951
1299.9000, -76.631
1300.0000, -77.052
1300.1000, -78.245
1300.2000, -75.593
1300.3000, -78.137
1300.4000, -75.160
1300.5000, -75.179
1300.6000, -75.035
1300.7000, -77.794
1300.8000, -75.090
1300.9000, -73.817
1301.0000, -76.565
1301.1000, -74.364
1301.2000, -76.582
1301.3000, -78.169
1301.4000, -78.222
1301.5000, -76.301
1301.6000, -75.613
1301.7000, -76.697
1301.8000, -74.268
1301.9000, -73.775
1302.0000, -75.123
1302.1000, -76.140
1302.2000, -74.471
1302.3000, -75.556
1302.4000, -75.802
1302.5000, -76.500
1302.6000, -73.896
1302.7000, -77.843
1302.8000, -77.711
1302.9000, -75.281
1303.0000, -76.615
1303.1000, -75.792
1303.2000, -75.822
1303.3000, -75.200
1303.4000, -74.404
1303.5000, -75.948
1303.6000, -74.015
1303.7000, -75.878
1303.8000, -74.593
1303.9000, -76.667
1304.0000, -75.206
1304.1000, -74.829
1304.2000, -74.991
1304.3000, -75.212
1304.4000, -75.762
1304.5000, -74.862
1304.6000, -76.049
1304.7000, -75.018
1304.8000, -73.519
1304.9000, -74.580
1305.0000, -74.095
1305.1000, -76.660
1305.2000, -75.784
1305.3000, -74.032
1305.4000, -74.667
1305.5000, -74.601
1305.6000, -74.672
1305.7000, -73.927
1305.8000, -73.822
1305.9000, -75.647
1306.0000, -75.652
1306.1000, -73.993
1306.2000, -74.633
1306.3000, -74.411
1306.4000, -73.920
1306.5000, -74.337
1306.6000, -73.913
1306.7000, -74.977
1306.8000, -75.165
1306.9000, -73.972
1307.0000, -74.536
1307.1000, -75.897
1307.2000, -73.656
1307.3000, -73.809
1307.4000, -74.937
1307.5000, -74.706
1307.6000, -74.078
1307.7000, -73.854
1307.8000, -73.449
1307.9000, -75.635
1308.0000, -74.038
1308.1000, -73.701
1308.2000, -73.852
1308.3000, -73.693
1308.4000, -73.893
1308.5000, -73.579
1308.6000, -73.656
1308.7000, -72.925
1308.8000, -73.176
1308.9000, -74.111
1309.0000, -75.124
1309.1000, -74.841
1309.2000, -75.220
1309.3000, -74.581
1309.4000, -73.928
1309.5000, -75.298
1309.6000, -73.990
1309.7000, -74.991
1309.8000, -72.814
1309.9000, -73.351
1310.0000, -74.642
1310.1000, -73.449
1310.2000, -74.488
1310.3000, -75.126
1310.4000, -73.385
1310.5000, -73.733
1310.6000, -73.467
1310.7000, -73.880
1310.8000, -73.983
1310.9000, -74.526
1311.0000, -73.516
1311.1000, -72.972
1311.2000, -74.886
1311.3000, -74.142
1311.4000, -74.046
1311.5000, -75.033
1311.6000, -73.556
1311.7000, -72.977
1311.8000, -72.853
1311.9000, -73.017
1312.0000, -72.552
1312.1000, -73.565
1312.2000, -73.432
1312.3000, -73.905
1312.4000, -73.859
1312.5000, -73.199
1312.6000, -73.166
1312.7000, -73.802
1312.8000, -72.992
1312.9000, -73.610
1313.0000, -73.402
1313.1000, -73.812
1313.2000, -72.861
1313.3000, -73.619
1313.4000, -74.045
1313.5000, -73.481
1313.6000, -72.250
1313.7000, -73.075
1313.8000, -72.682
1313.9000, -72.644
1314.0000, -71.978
1314.1000, -72.729
1314.2000, -72.977
1314.3000, -74.085
1314.4000, -72.879
1314.5000, -72.015
1314.6000, -72.189
1314.7000, -72.145
1314.8000, -73.139
1314.9000, -72.791
1315.0000, -71.707
1315.1000, -71.883
1315.2000, -73.117
1315.3000, -73.196
1315.4000, -72.507
1315.5000, -72.383
1315.6000, -72.901
1315.7000, -72.079
1315.8000, -72.583
1315.9000, -71.233
1316.0000, -72.298
1316.1000, -72.221
1316.2000, -71.196
1316.3000, -72.561
1316.4000, -71.830
1316.5000, -72.551
1316.6000, -72.750
1316.7000, -72.616
1316.8000, -72.003
1316.9000, -71.777
1317.0000, -72.265
1317.1000, -71.321
1317.2000, -71.862
1317.3000, -71.252
1317.4000, -72.137
1317.5000, -73.005
1317.6000, -72.611
1317.7000, -73.090
1317.8000, -72.090
1317.9000, -72.225
1318.0000, -72.491
1318.1000, -73.002
1318.2000, -72.146
1318.3000, -71.788
1318.4000, -71.782
1318.5000, -72.240
1318.6000, -70.789
1318.7000, -71.771
1318.8000, -71.210
1318.9000, -71.272
1319.0000, -70.968
1319.1000, -71.102
1319.2000, -71.218
1319.3000, -70.553
1319.4000, -70.796
1319.5000, -71.244
1319.6000, -71.200
1319.7000, -71.469
1319.8000, -71.347
1319.9000, -71.043
1320.0000, -70.295
1320.1000, -70.960
1320.2000, -70.777
1320.3000, -70.943
1320.4000, -70.466
1320.5000, -71.036
1320.6000, -71.132
1320.7000, -71.345
1320.8000, -70.596
1320.9000, -70.268
1321.0000, -70.188
1321.1000, -70.671
1321.2000, -71.154
1321.3000, -70.470
1321.4000, -70.679
1321.5000, -71.045
1321.6000, -70.868
1321.7000, -70.428
1321.8000, -70.320
1321.9000, -70.612
1322.0000, -69.703
1322.1000, -70.470
1322.2000, -70.663
1322.3000, -70.126
1322.4000, -70.393
1322.5000, -70.432
1322.6000, -69.996
1322.7000, -70.279
1322.8000, -70.792
1322.9000, -70.845
1323.0000, -70.605
1323.1000, -70.649
1323.2000, -70.240
1323.3000, -70.090
1323.4000, -70.747
1323.5000, -70.884
1323.6000, -70.022
1323.7000, -70.125
1323.8000, -70.415
1323.9000, -70.290
1324.0000, -70.207
1324.1000, -69.741
1324.2000, -70.285
1324.3000, -70.398
1324.4000, -69.975
1324.5000, -69.875
1324.6000, -70.080
1324.7000, -69.487
1324.8000, -70.128
1324.9000, -69.657
1325.0000, -69.712
1325.1000, -69.391
1325.2000, -69.680
1325.3000, -70.037
1325.4000, -70.188
1325.5000, -69.676
1325.6000, -69.709
1325.7000, -69.453
1325.8000, -69.351
1325.9000, -69.182
1326.0000, -69.339
1326.1000, -69.523
1326.2000, -69.716
1326.3000, -69.001
1326.4000, -69.053
1326.5000, -69.008
1326.6000, -68.921
1326.7000, -69.005
1326.8000, -68.752
1326.9000, -68.572
1327.0000, -68.712
1327.1000, -68.624
1327.2000, -68.720
1327.3000, -68.910
1327.4000, -68.559
1327.5000, -68.383
1327.6000, -68.468
1327.7000, -68.428
1327.8000, -68.468
1327.9000, -68.492
1328.0000, -68.557
1328.1000, -68.611
1328.2000, -68.394
1328.3000, -68.306
1328.4000, -68.072
1328.5000, -68.415
1328.6000, -68.883
1328.7000, -68.032
1328.8000, -68.520
1328.9000, -68.137
1329.0000, -68.598
1329.1000, -68.346
1329.2000, -68.289
1329.3000, -68.260
1329.4000, -68.351
1329.5000, -68.587
1329.6000, -68.222
1329.7000, -68.780
1329.8000, -68.558
1329.9000, -68.235
1330.0000, -68.713
1330.1000, -68.302
1330.2000, -68.423
1330.3000, -68.295
1330.4000, -68.245
1330.5000, -68.716
1330.6000, -68.275
1330.7000, -68.490
1330.8000, -68.080
1330.9000, -68.073
1331.0000, -68.289
1331.1000, -68.312
1331.2000, -68.180
1331.3000, -68.009
1331.4000, -68.043
1331.5000, -68.301
1331.6000, -67.736
1331.7000, -68.374
1331.8000, -67.983
1331.9000, -67.992
1332.0000, -67.826
1332.1000, -67.811
1332.2000, -67.873
1332.3000, -68.043
1332.4000, -68.196
1332.5000, -67.120
1332.6000, -67.619
1332.7000, -67.241
1332.8000, -67.640
1332.9000, -67.088
1333.0000, -67.271
1333.1000, -67.109
1333.2000, -66.955
1333.3000, -66.688
1333.4000, -67.011
1333.5000, -66.871
1333.6000, -66.980
1333.7000, -66.840
1333.8000, -66.912
1333.9000, -67.080
1334.0000, -66.968
1334.1000, -66.759
1334.2000, -66.653
1334.3000, -66.580
1334.4000, -66.356
1334.5000, -66.467
1334.6000, -66.249
1334.7000, -66.480
1334.8000, -66.962
1334.9000, -66.755
1335.0000, -66.419
1335.1000, -66.457
1335.2000, -66.504
1335.3000, -66.260
1335.4000, -66.331
1335.5000, -66.248
1335.6000, -66.399
1335.7000, -66.204
1335.8000, -66.271
1335.9000, -66.496
1336.0000, -66.288
1336.1000, -66.124
1336.2000, -66.353
1336.3000, -66.262
1336.4000, -66.484
1336.5000, -66.338
1336.6000, -66.310
1336.7000, -66.314
1336.8000, -66.522
1336.9000, -66.397
1337.0000, -66.352
1337.1000, -66.477
1337.2000, -66.325
1337.3000, -66.180
1337.4000, -66.133
1337.5000, -66.496
1337.6000, -66.333
1337.7000, -65.995
1337.8000, -66.154
1337.9000, -66.264
1338.0000, -66.183
1338.1000, -66.378
1338.2000, -66.240
1338.3000, -66.183
1338.4000, -66.025
1338.5000, -65.964
1338.6000, -66.002
1338.7000, -66.179
1338.8000, -65.977
1338.9000, -65.957
1339.0000, -65.792
1339.1000, -65.718
1339.2000, -65.484
1339.3000, -65.550
1339.4000, -65.364
1339.5000, -65.503
1339.6000, -65.492
1339.7000, -65.640
1339.8000, -65.347
1339.9000, -65.246
1340.0000, -65.179
1340.1000, -65.204
1340.2000, -65.137
1340.3000, -65.199
1340.4000, -64.963
1340.5000, -64.872
1340.6000, -64.791
1340.7000, -64.970
1340.8000, -64.609
1340.9000, -64.690
1341.0000, -64.609
1341.1000, -64.597
1341.2000, -64.808
1341.3000, -64.594
1341.4000, -64.424
1341.5000, -64.474
1341.6000, -64.574
1341.7000, -64.380
1341.8000, -64.452
1341.9000, -64.467
1342.0000, -64.361
1342.1000, -64.358
1342.2000, -64.338
1342.3000, -64.278
1342.4000, -64.362
1342.5000, -64.283
1342.6000, -64.192
1342.7000, -64.395
1342.8000, -64.259
1342.9000, -64.244
1343.0000, -64.508
1343.1000, -64.201
1343.2000, -64.210
1343.3000, -64.330
1343.4000, -64.244
1343.5000, -64.062
1343.6000, -64.301
1343.7000, -64.557
1343.8000, -64.494
1343.9000, -64.429
1344.0000, -64.567
1344.1000, -64.512
1344.2000, -64.294
1344.3000, -64.367
1344.4000, -64.459
1344.5000, -64.295
1344.6000, -64.387
1344.7000, -64.416
1344.8000, -64.300
1344.9000, -64.238
1345.0000, -64.226
1345.1000, -64.346
1345.2000, -64.216
1345.3000, -64.209
1345.4000, -64.005
1345.5000, -64.113
1345.6000, -64.080
1345.7000, -63.982
1345.8000, -64.012
1345.9000, -63.936
1346.0000, -63.947
1346.1000, -63.945
1346.2000, -63.514
1346.3000, -63.763
1346.4000, -63.630
1346.5000, -63.660
1346.6000, -63.505
1346.7000, -63.519
1346.8000, -63.535
1346.9000, -63.325
1347.0000, -63.171
1347.1000, -63.150
1347.2000, -63.277
1347.3000, -63.155
1347.4000, -63.186
1347.5000, -63.034
1347.6000, -62.902
1347.7000, -62.789
1347.8000, -62.888
1347.9000, -62.751
1348.0000, -62.696
1348.1000, -62.698
1348.2000, -62.618
1348.3000, -62.462
1348.4000, -62.453
1348.5000, -62.448
1348.6000, -62.523
1348.7000, -62.436
1348.8000, -62.457
1348.9000, -62.384
1349.0000, -62.275
1349.1000, -62.394
1349.2000, -62.261
1349.3000, -62.454
1349.4000, -62.268
1349.5000, -62.359
1349.6000, -62.334
1349.7000, -62.332
1349.8000, -62.308
1349.9000, -62.395
1350.0000, -62.375
1350.1000, -62.406
1350.2000, -62.438
1350.3000, -62.469
1350.4000, -62.316
1350.5000, -62.392
1350.6000, -62.472
1350.7000, -62.362
1350.8000, -62.304
1350.9000, -62.302
1351.0000, -62.505
1351.1000, -62.428
1351.2000, -62.418
1351.3000, -62.555
1351.4000, -62.425
1351.5000, -62.475
1351.6000, -62.583
1351.7000, -62.498
1351.8000, -62.512
1351.9000, -62.378
1352.0000, -62.494
1352.1000, -62.426
1352.2000, -62.464
1352.3000, -62.412
1352.4000, -62.408
1352.5000, -62.266
1352.6000, -62.422
1352.7000, -62.316
1352.8000, -62.188
1352.9000, -62.041
1353.0000, -62.126
1353.1000, -61.933
1353.2000, -62.084
1353.3000, -61.945
1353.4000, -61.808
1353.5000, -61.912
1353.6000, -61.758
1353.7000, -61.778
1353.8000, -61.679
1353.9000, -61.523
1354.0000, -61.506
1354.1000, -61.441
1354.2000, -61.377
1354.3000, -61.426
1354.4000, -61.354
1354.5000, -61.279
1354.6000, -61.173
1354.7000, -61.098
1354.8000, -61.022
1354.9000, -60.919
1355.0000, -60.841
1355.1000, -60.762
1355.2000, -60.738
1355.3000, -60.896
1355.4000, -60.851
1355.5000, -60.854
1355.6000, -60.755
1355.7000, -60.638
1355.8000, -60.524
1355.9000, -60.394
1356.0000, -60.458
1356.1000, -60.414
1356.2000, -60.397
1356.3000, -60.331
1356.4000, -60.309
1356.5000, -60.335
1356.6000, -60.511
1356.7000, -60.510
1356.8000, -60.536
1356.9000, -60.479
1357.0000, -60.443
1357.1000, -60.392
1357.2000, -60.426
1357.3000, -60.492
1357.4000, -60.468
1357.5000, -60.479
1357.6000, -60.502
1357.7000, -60.396
1357.8000, -60.518
1357.9000, -60.556
1358.0000, -60.558
1358.1000, -60.656
1358.2000, -60.682
1358.3000, -60.597
1358.4000, -60.586
1358.5000, -60.641
1358.6000, -60.646
1358.7000, -60.641
1358.8000, -60.554
1358.9000, -60.637
1359.0000, -60.806
1359.1000, -60.861
1359.2000, -60.920
1359.3000, -60.906
1359.4000, -60.690
1359.5000, -60.609
1359.6000, -60.480
1359.7000, -60.501
1359.8000, -60.515
1359.9000, -60.467
1360.0000, -60.399
1360.1000, -60.329
1360.2000, -60.250
1360.3000, -60.315
1360.4000, -60.290
1360.5000, -60.270
1360.6000, -60.307
1360.7000, -60.168
1360.8000, -60.028
1360.9000, -59.865
1361.0000, -59.780
1361.1000, -59.797
1361.2000, -59.878
1361.3000, -59.777
1361.4000, -59.713
1361.5000, -59.644
1361.6000, -59.498
1361.7000, -59.360
1361.8000, -59.505
1361.9000, -59.657
1362.0000, -59.607
1362.1000, -59.480
1362.2000, -59.388
1362.3000, -59.015
1362.4000, -58.873
1362.5000, -58.813
1362.6000, -58.723
1362.7000, -58.659
1362.8000, -58.628
1362.9000, -58.562
1363.0000, -58.566
1363.1000, -58.551
1363.2000, -58.513
1363.3000, -58.451
1363.4000, -58.456
1363.5000, -58.465
1363.6000, -58.447
1363.7000, -58.522
1363.8000, -58.488
1363.9000, -58.514
1364.0000, -58.567
1364.1000, -58.674
1364.2000, -58.847
1364.3000, -58.893
1364.4000, -58.988
1364.5000, -58.867
1364.6000, -58.615
1364.7000, -58.571
1364.8000, -58.659
1364.9000, -58.726
1365.0000, -58.744
1365.1000, -58.876
1365.2000, -58.837
1365.3000, -58.758
1365.4000, -58.783
1365.5000, -58.718
1365.6000, -58.728
1365.7000, -58.741
1365.8000, -58.802
1365.9000, -58.795
1366.0000, -58.826
1366.1000, -58.780
1366.2000, -58.822
1366.3000, -58.851
1366.4000, -58.903
1366.5000, -58.870
1366.6000, -58.924
1366.7000, -58.870
1366.8000, -58.788
1366.9000, -58.772
1367.0000, -58.833
1367.1000, -58.788
1367.2000, -58.720
1367.3000, -58.829
1367.4000, -58.842
1367.5000, -58.716
1367.6000, -58.599
1367.7000, -58.508
1367.8000, -58.296
1367.9000, -58.257
1368.0000, -58.323
1368.1000, -58.434
1368.2000, -58.391
1368.3000, -58.300
1368.4000, -58.125
1368.5000, -57.818
1368.6000, -57.700
1368.7000, -57.651
1368.8000, -57.550
1368.9000, -57.470
1369.0000, -57.378
1369.1000, -57.305
1369.2000, -57.214
1369.3000, -57.208
1369.4000, -57.238
1369.5000, -57.237
1369.6000, -57.217
1369.7000, -57.162
1369.8000, -57.009
1369.9000, -56.880
1370.0000, -56.837
1370.1000, -56.755
1370.2000, -56.713
1370.3000, -56.739
1370.4000, -56.879
1370.5000, -56.935
1370.6000, -56.925
1370.7000, -56.909
1370.8000, -56.849
1370.9000, -56.669
1371.0000, -56.610
1371.1000, -56.560
1371.2000, -56.579
1371.3000, -56.610
1371.4000, -56.584
1371.5000, -56.626
1371.6000, -56.660
1371.7000, -56.724
1371.8000, -56.806
1371.9000, -56.788
1372.0000, -56.770
1372.1000, -56.806
1372.2000, -56.787
1372.3000, -56.784
1372.4000, -56.800
1372.5000, -56.867
1372.6000, -56.885
1372.7000, -56.919
1372.8000, -56.940
1372.9000, -57.002
1373.0000, -57.051
1373.1000, -57.074
1373.2000, -57.077
1373.3000, -57.084
1373.4000, -57.107
1373.5000, -57.111
1373.6000, -57.084
1373.7000, -57.095
1373.8000, -57.101
1373.9000, -57.148
1374.0000, -57.124
1374.1000, -57.069
1374.2000, -57.106
1374.3000, -57.062
1374.4000, -57.056
1374.5000, -57.076
1374.6000, -56.998
1374.7000, -56.937
1374.8000, -56.841
1374.9000, -56.710
1375.0000, -56.661
1375.1000, -56.623
1375.2000, -56.548
1375.3000, -56.491
1375.4000, -56.429
1375.5000, -56.323
1375.6000, -56.282
1375.7000, -56.189
1375.8000, -56.089
1375.9000, -55.970
1376.0000, -55.887
1376.1000, -55.814
1376.2000, -55.730
1376.3000, -55.651
1376.4000, -55.637
1376.5000, -55.618
1376.6000, -55.537
1376.7000, -55.494
1376.8000, -55.378
1376.9000, -55.238
1377.0000, -55.118
1377.1000, -55.070
1377.2000, -54.996
1377.3000, -54.937
1377.4000, -54.906
1377.5000, -54.855
1377.6000, -54.806
1377.7000, -54.809
1377.8000, -54.751
1377.9000, -54.722
1378.0000, -54.758
1378.1000, -54.762
1378.2000, -54.837
1378.3000, -54.844
1378.4000, -54.856
1378.5000, -54.805
1378.6000, -54.780
1378.7000, -54.740
1378.8000, -54.723
1378.9000, -54.697
1379.0000, -54.702
1379.1000, -54.728
1379.2000, -54.773
1379.3000, -54.774
1379.4000, -54.788
1379.5000, -54.844
1379.6000, -54.919
1379.7000, -54.974
1379.8000, -55.009
1379.9000, -55.063
1380.0000, -55.168
1380.1000, -55.414
1380.2000, -55.622
1380.3000, -55.737
1380.4000, -55.749
1380.5000, -55.644
1380.6000, -55.541
1380.7000, -55.436
1380.8000, -55.411
1380.9000, -55.424
1381.0000, -55.360
1381.1000, -55.314
1381.2000, -55.353
1381.3000, -55.351
1381.4000, -55.379
1381.5000, -55.370
1381.6000, -55.324
1381.7000, -55.322
1381.8000, -55.268
1381.9000, -55.302
1382.0000, -55.333
1382.1000, -55.455
1382.2000, -55.623
1382.3000, -55.568
1382.4000, -55.494
1382.5000, -55.378
1382.6000, -55.072
1382.7000, -54.849
1382.8000, -54.677
1382.9000, -54.555
1383.0000, -54.458
1383.1000, -54.331
1383.2000, -54.259
1383.3000, -54.263
1383.4000, -54.225
1383.5000, -54.121
1383.6000, -54.019
1383.7000, -53.900
1383.8000, -53.680
1383.9000, -53.589
1384.0000, -53.513
1384.1000, -53.426
1384.2000, -53.338
1384.3000, -53.296
1384.4000, -53.257
1384.5000, -53.242
1384.6000, -53.292
1384.7000, -53.235
1384.8000, -53.160
1384.9000, -53.083
1385.0000, -52.921
1385.1000, -52.826
1385.2000, -52.791
1385.3000, -52.763
1385.4000, -52.773
1385.5000, -52.747
1385.6000, -52.704
1385.7000, -52.689
1385.8000, -52.669
1385.9000, -52.685
1386.0000, -52.704
1386.1000, -52.699
1386.2000, -52.691
1386.3000, -52.647
1386.4000, -52.660
1386.5000, -52.674
1386.6000, -52.700
1386.7000, -52.734
1386.8000, -52.768
1386.9000, -52.793
1387.0000, -52.833
1387.1000, -52.880
1387.2000, -52.937
1387.3000, -53.098
1387.4000, -53.203
1387.5000, -53.288
1387.6000, -53.396
1387.7000, -53.428
1387.8000, -53.400
1387.9000, -53.455
1388.0000, -53.446
1388.1000, -53.441
1388.2000, -53.414
1388.3000, -53.393
1388.4000, -53.418
1388.5000, -53.455
1388.6000, -53.474
1388.7000, -53.487
1388.8000, -53.465
1388.9000, -53.436
1389.0000, -53.424
1389.1000, -53.421
1389.2000, -53.390
1389.3000, -53.411
1389.4000, -53.383
1389.5000, -53.351
1389.6000, -53.283
1389.7000, -53.219
1389.8000, -53.103
1389.9000, -53.012
1390.0000, -52.928
1390.1000, -52.850
1390.2000, -52.769
1390.3000, -52.688
1390.4000, -52.598
1390.5000, -52.482
1390.6000, -52.390
1390.7000, -52.294
1390.8000, -52.160
1390.9000, -52.049
1391.0000, -51.954
1391.1000, -51.865
1391.2000, -51.777
1391.3000, -51.670
1391.4000, -51.576
1391.5000, -51.486
1391.6000, -51.437
1391.7000, -51.398
1391.8000, -51.349
1391.9000, -51.342
1392.0000, -51.454
1392.1000, -51.362
1392.2000, -51.264
1392.3000, -51.158
1392.4000, -50.948
1392.5000, -50.772
1392.6000, -50.702
1392.7000, -50.637
1392.8000, -50.610
1392.9000, -50.572
1393.0000, -50.545
1393.1000, -50.520
1393.2000, -50.504
1393.3000, -50.502
1393.4000, -50.501
1393.5000, -50.501
1393.6000, -50.505
1393.7000, -50.515
1393.8000, -50.520
1393.9000, -50.530
1394.0000, -50.558
1394.1000, -50.611
1394.2000, -50.649
1394.3000, -50.694
1394.4000, -50.845
1394.5000, -50.986
1394.6000, -51.022
1394.7000, -51.076
1394.8000, -51.101
1394.9000, -51.033
1395.0000, -51.112
1395.1000, -51.182
1395.2000, -51.250
1395.3000, -51.293
1395.4000, -51.278
1395.5000, -51.284
1395.6000, -51.313
1395.7000, -51.359
1395.8000, -51.541
1395.9000, -51.658
1396.0000, -51.768
1396.1000, -51.850
1396.2000, -51.804
1396.3000, -51.667
1396.4000, -51.623
1396.5000, -51.534
1396.6000, -51.508
1396.7000, -51.511
1396.8000, -51.497
1396.9000, -51.454
1397.0000, -51.415
1397.1000, -51.359
1397.2000, -51.274
1397.3000, -51.203
1397.4000, -51.131
1397.5000, -51.058
1397.6000, -50.972
1397.7000, -50.879
1397.8000, -50.790
1397.9000, -50.695
1398.0000, -50.578
1398.1000, -50.475
1398.2000, -50.365
1398.3000, -50.241
1398.4000, -50.126
1398.5000, -50.023
1398.6000, -49.913
1398.7000, -49.799
1398.8000, -49.701
1398.9000, -49.617
1399.0000, -49.636
1399.1000, -49.555
1399.2000, -49.463
1399.3000, -49.361
1399.4000, -49.187
1399.5000, -49.085
1399.6000, -49.011
1399.7000, -48.930
1399.8000, -48.881
1399.9000, -48.779
1400.0000, -48.702
1400.1000, -48.737
1400.2000, -48.835
1400.3000, -48.787
1400.4000, -48.730
1400.5000, -48.636
1400.6000, -48.468
1400.7000, -48.370
1400.8000, -48.369
1400.9000, -48.367
1401.0000, -48.394
1401.1000, -48.395
1401.2000, -48.386
1401.3000, -48.380
1401.4000, -48.354
1401.5000, -48.340
1401.6000, -48.351
1401.7000, -48.369
1401.8000, -48.398
1401.9000, -48.432
1402.0000, -48.465
1402.1000, -48.508
1402.2000, -48.555
1402.3000, -48.615
1402.4000, -48.671
1402.5000, -48.737
1402.6000, -48.805
1402.7000, -48.864
1402.8000, -48.934
1402.9000, -48.995
1403.0000, -49.042
1403.1000, -49.093
1403.2000, -49.160
1403.3000, -49.215
1403.4000, -49.269
1403.5000, -49.333
1403.6000, -49.391
1403.7000, -49.436
1403.8000, -49.486
1403.9000, -49.530
1404.0000, -49.544
1404.1000, -49.547
1404.2000, -49.554
1404.3000, -49.573
1404.4000, -49.738
1404.5000, -49.838
1404.6000, -49.828
1404.7000, -49.781
1404.8000, -49.615
1404.9000, -49.367
1405.0000, -49.240
1405.1000, -49.150
1405.2000, -49.051
1405.3000, -48.949
1405.4000, -48.846
1405.5000, -48.750
1405.6000, -48.643
1405.7000, -48.523
1405.8000, -48.403
1405.9000, -48.292
1406.0000, -48.166
1406.1000, -48.052
1406.2000, -47.955
1406.3000, -47.855
1406.4000, -47.747
1406.5000, -47.654
1406.6000, -47.525
1406.7000, -47.456
1406.8000, -47.368
1406.9000, -47.268
1407.0000, -47.182
1407.1000, -47.064
1407.2000, -46.896
1407.3000, -46.789
1407.4000, -46.666
1407.5000, -46.564
1407.6000, -46.487
1407.7000, -46.420
1407.8000, -46.364
1407.9000, -46.311
1408.0000, -46.260
1408.1000, -46.213
1408.2000, -46.164
1408.3000, -46.130
1408.4000, -46.123
1408.5000, -46.109
1408.6000, -46.102
1408.7000, -46.139
1408.8000, -46.151
1408.9000, -46.188
1409.0000, -46.271
1409.1000, -46.285
1409.2000, -46.253
1409.3000, -46.258
1409.4000, -46.216
1409.5000, -46.211
1409.6000, -46.245
1409.7000, -46.289
1409.8000, -46.318
1409.9000, -46.355
1410.0000, -46.423
1410.1000, -46.494
1410.2000, -46.562
1410.3000, -46.632
1410.4000, -46.692
1410.5000, -46.767
1410.6000, -46.838
1410.7000, -46.928
1410.8000, -47.005
1410.9000, -47.082
1411.0000, -47.148
1411.1000, -47.221
1411.2000, -47.282
1411.3000, -47.344
1411.4000, -47.399
1411.5000, -47.453
1411.6000, -47.513
1411.7000, -47.567
1411.8000, -47.628
1411.9000, -47.655
1412.0000, -47.658
1412.1000, -47.650
1412.2000, -47.610
1412.3000, -47.578
1412.4000, -47.540
1412.5000, -47.495
1412.6000, -47.433
1412.7000, -47.371
1412.8000, -47.297
1412.9000, -47.209
1413.0000, -47.125
1413.1000, -47.032
1413.2000, -46.929
1413.3000, -46.813
1413.4000, -46.683
1413.5000, -46.570
1413.6000, -46.489
1413.7000, -46.402
1413.8000, -46.289
1413.9000, -46.149
1414.0000, -45.969
1414.1000, -45.818
1414.2000, -45.676
1414.3000, -45.556
1414.4000, -45.434
1414.5000, -45.283
1414.6000, -45.134
1414.7000, -45.010
1414.8000, -44.901
1414.9000, -44.796
1415.0000, -44.686
1415.1000, -44.582
1415.2000, -44.482
1415.3000, -44.391
1415.4000, -44.312
1415.5000, -44.236
1415.6000, -44.163
1415.7000, -44.094
1415.8000, -44.037
1415.9000, -43.985
1416.0000, -43.937
1416.1000, -43.894
1416.2000, -43.862
1416.3000, -43.839
1416.4000, -43.830
1416.5000, -43.815
1416.6000, -43.803
1416.7000, -43.803
1416.8000, -43.810
1416.9000, -43.825
1417.0000, -43.862
1417.1000, -43.903
1417.2000, -43.936
1417.3000, -43.974
1417.4000, -44.011
1417.5000, -44.036
1417.6000, -44.090
1417.7000, -44.144
1417.8000, -44.206
1417.9000, -44.275
1418.0000, -44.343
1418.1000, -44.425
1418.2000, -44.505
1418.3000, -44.602
1418.4000, -44.726
1418.5000, -44.825
1418.6000, -44.913
1418.7000, -45.002
1418.8000, -45.061
1418.9000, -45.125
1419.0000, -45.202
1419.1000, -45.289
1419.2000, -45.346
1419.3000, -45.403
1419.4000, -45.467
1419.5000, -45.514
1419.6000, -45.548
1419.7000, -45.573
1419.8000, -45.582
1419.9000, -45.574
1420.0000, -45.571
1420.1000, -45.557
1420.2000, -45.537
1420.3000, -45.493
1420.4000, -45.429
1420.5000, -45.359
1420.6000, -45.278
1420.7000, -45.175
1420.8000, -45.068
1420.9000, -44.961
1421.0000, -44.842
1421.1000, -44.718
1421.2000, -44.584
1421.3000, -44.445
1421.4000, -44.301
1421.5000, -44.148
1421.6000, -44.003
1421.7000, -43.851
1421.8000, -43.698
1421.9000, -43.551
1422.0000, -43.406
1422.1000, -43.268
1422.2000, -43.131
1422.3000, -42.992
1422.4000, -42.855
1422.5000, -42.721
1422.6000, -42.598
1422.7000, -42.481
1422.8000, -42.367
1422.9000, -42.264
1423.0000, -42.153
1423.1000, -42.047
1423.2000, -41.955
1423.3000, -41.871
1423.4000, -41.807
1423.5000, -41.738
1423.6000, -41.675
1423.7000, -41.600
1423.8000, -41.519
1423.9000, -41.449
1424.0000, -41.395
1424.1000, -41.360
1424.2000, -41.333
1424.3000, -41.315
1424.4000, -41.304
1424.5000, -41.292
1424.6000, -41.290
1424.7000, -41.297
1424.8000, -41.314
1424.9000, -41.330
1425.0000, -41.354
1425.1000, -41.394
1425.2000, -41.428
1425.3000, -41.472
1425.4000, -41.525
1425.5000, -41.573
1425.6000, -41.630
1425.7000, -41.695
1425.8000, -41.766
1425.9000, -41.836
1426.0000, -41.914
1426.1000, -41.998
1426.2000, -42.094
1426.3000, -42.185
1426.4000, -42.279
1426.5000, -42.374
1426.6000, -42.474
1426.7000, -42.577
1426.8000, -42.682
1426.9000, -42.781
1427.0000, -42.866
1427.1000, -42.957
1427.2000, -43.030
1427.3000, -43.107
1427.4000, -43.178
1427.5000, -43.236
1427.6000, -43.292
1427.7000, -43.341
1427.8000, -43.372
1427.9000, -43.390
1428.0000, -43.385
1428.1000, -43.356
1428.2000, -43.328
1428.3000, -43.284
1428.4000, -43.234
1428.5000, -43.169
1428.6000, -43.086
1428.7000, -42.986
1428.8000, -42.876
1428.9000, -42.750
1429.0000, -42.623
1429.1000, -42.486
1429.2000, -42.343
1429.3000, -42.196
1429.4000, -42.059
1429.5000, -41.902
1429.6000, -41.740
1429.7000, -41.578
1429.8000, -41.412
1429.9000, -41.248
1430.0000, -41.083
1430.1000, -40.927
1430.2000, -40.785
1430.3000, -40.636
1430.4000, -40.503
1430.5000, -40.374
1430.6000, -40.245
1430.7000, -40.128
1430.8000, -40.011
1430.9000, -39.889
1431.0000, -39.778
1431.1000, -39.670
1431.2000, -39.571
1431.3000, -39.480
1431.4000, -39.403
1431.5000, -39.310
1431.6000, -39.230
1431.7000, -39.162
1431.8000, -39.116
1431.9000, -39.088
1432.0000, -39.060
1432.1000, -39.025
1432.2000, -38.987
1432.3000, -38.941
1432.4000, -38.918
1432.5000, -38.906
1432.6000, -38.905
1432.7000, -38.913
1432.8000, -38.927
1432.9000, -38.950
1433.0000, -38.981
1433.1000, -39.017
1433.2000, -39.064
1433.3000, -39.115
1433.4000, -39.173
1433.5000, -39.238
1433.6000, -39.310
1433.7000, -39.389
1433.8000, -39.481
1433.9000, -39.598
1434.0000, -39.701
1434.1000, -39.804
1434.2000, -39.901
1434.3000, -39.987
1434.4000, -40.089
1434.5000, -40.208
1434.6000, -40.331
1434.7000, -40.455
1434.8000, -40.582
1434.9000, -40.706
1435.0000, -40.837
1435.1000, -40.958
1435.2000, -41.070
1435.3000, -41.175
1435.4000, -41.282
1435.5000, -41.388
1435.6000, -41.490
1435.7000, -41.562
1435.8000, -41.622
1435.9000, -41.673
1436.0000, -41.695
1436.1000, -41.712
1436.2000, -41.707
1436.3000, -41.690
1436.4000, -41.646
1436.5000, -41.592
1436.6000, -41.521
1436.7000, -41.438
1436.8000, -41.337
1436.9000, -41.215
1437.0000, -41.090
1437.1000, -40.948
1437.2000, -40.816
1437.3000, -40.665
1437.4000, -40.502
1437.5000, -40.328
1437.6000, -40.141
1437.7000, -39.948
1437.8000, -39.761
1437.9000, -39.576
1438.0000, -39.398
1438.1000, -39.226
1438.2000, -39.061
1438.3000, -38.896
1438.4000, -38.730
1438.5000, -38.573
1438.6000, -38.424
1438.7000, -38.278
1438.8000, -38.144
1438.9000, -38.027
1439.0000, -37.909
1439.1000, -37.800
1439.2000, -37.691
1439.3000, -37.575
1439.4000, -37.467
1439.5000, -37.370
1439.6000, -37.285
1439.7000, -37.211
1439.8000, -37.145
1439.9000, -37.089
1440.0000, -37.036
1440.1000, -36.994
1440.2000, -36.961
1440.3000, -36.933
1440.4000, -36.910
1440.5000, -36.895
1440.6000, -36.891
1440.7000, -36.896
1440.8000, -36.907
1440.9000, -36.945
1441.0000, -36.988
1441.1000, -37.021
1441.2000, -37.062
1441.3000, -37.101
1441.4000, -37.130
1441.5000, -37.191
1441.6000, -37.263
1441.7000, -37.350
1441.8000, -37.440
1441.9000, -37.536
1442.0000, -37.633
1442.1000, -37.734
1442.2000, -37.851
1442.3000, -37.984
1442.4000, -38.122
1442.5000, -38.255
1442.6000, -38.392
1442.7000, -38.524
1442.8000, -38.656
1442.9000, -38.795
1443.0000, -38.935
1443.1000, -39.079
1443.2000, -39.228
1443.3000, -39.372
1443.4000, -39.506
1443.5000, -39.638
1443.6000, -39.764
1443.7000, -39.877
1443.8000, -39.988
1443.9000, -40.076
1444.0000, -40.148
1444.1000, -40.202
1444.2000, -40.229
1444.3000, -40.244
1444.4000, -40.240
1444.5000, -40.209
1444.6000, -40.163
1444.7000, -40.092
1444.8000, -40.004
1444.9000, -39.904
1445.0000, -39.792
1445.1000, -39.678
1445.2000, -39.546
1445.3000, -39.399
1445.4000, -39.218
1445.5000, -39.006
1445.6000, -38.797
1445.7000, -38.581
1445.8000, -38.373
1445.9000, -38.177
1446.0000, -37.977
1446.1000, -37.774
1446.2000, -37.581
1446.3000, -37.399
1446.4000, -37.218
1446.5000, -37.041
1446.6000, -36.872
1446.7000, -36.703
1446.8000, -36.538
1446.9000, -36.380
1447.0000, -36.228
1447.1000, -36.082
1447.2000, -35.941
1447.3000, -35.811
1447.4000, -35.695
1447.5000, -35.585
1447.6000, -35.479
1447.7000, -35.384
1447.8000, -35.296
1447.9000, -35.220
1448.0000, -35.149
1448.1000, -35.081
1448.2000, -35.023
1448.3000, -34.975
1448.4000, -34.941
1448.5000, -34.910
1448.6000, -34.886
1448.7000, -34.868
1448.8000, -34.862
1448.9000, -34.866
1449.0000, -34.879
1449.1000, -34.897
1449.2000, -34.925
1449.3000, -34.962
1449.4000, -35.004
1449.5000, -35.059
1449.6000, -35.123
1449.7000, -35.190
1449.8000, -35.272
1449.9000, -35.361
1450.0000, -35.472
1450.1000, -35.593
1450.2000, -35.707
1450.3000, -35.825
1450.4000, -35.952
1450.5000, -36.065
1450.6000, -36.203
1450.7000, -36.350
1450.8000, -36.497
1450.9000, -36.656
1451.0000, -36.814
1451.1000, -36.978
1451.2000, -37.147
1451.3000, -37.322
1451.4000, -37.495
1451.5000, -37.667
1451.6000, -37.840
1451.7000, -38.009
1451.8000, -38.166
1451.9000, -38.312
1452.0000, -38.447
1452.1000, -38.553
1452.2000, -38.647
1452.3000, -38.726
1452.4000, -38.788
1452.5000, -38.824
1452.6000, -38.832
1452.7000, -38.808
1452.8000, -38.759
1452.9000, -38.679
1453.0000, -38.583
1453.1000, -38.459
1453.2000, -38.317
1453.3000, -38.148
1453.4000, -37.968
1453.5000, -37.773
1453.6000, -37.574
1453.7000, -37.359
1453.8000, -37.141
1453.9000, -36.916
1454.0000, -36.689
1454.1000, -36.458
1454.2000, -36.231
1454.3000, -36.003
1454.4000, -35.781
1454.5000, -35.565
1454.6000, -35.357
1454.7000, -35.156
1454.8000, -34.971
1454.9000, -34.779
1455.0000, -34.594
1455.1000, -34.416
1455.2000, -34.232
1455.3000, -34.067
1455.4000, -33.910
1455.5000, -33.762
1455.6000, -33.627
1455.7000, -33.499
1455.8000, -33.378
1455.9000, -33.265
1456.0000, -33.160
1456.1000, -33.069
1456.2000, -32.983
1456.3000, -32.905
1456.4000, -32.837
1456.5000, -32.778
1456.6000, -32.730
1456.7000, -32.690
1456.8000, -32.656
1456.9000, -32.630
1457.0000, -32.612
1457.1000, -32.609
1457.2000, -32.614
1457.3000, -32.624
1457.4000, -32.643
1457.5000, -32.670
1457.6000, -32.706
1457.7000, -32.753
1457.8000, -32.810
1457.9000, -32.874
1458.0000, -32.945
1458.1000, -33.028
1458.2000, -33.124
1458.3000, -33.224
1458.4000, -33.333
1458.5000, -33.450
1458.6000, -33.581
1458.7000, -33.720
1458.8000, -33.866
1458.9000, -34.020
1459.0000, -34.185
1459.1000, -34.355
1459.2000, -34.537
1459.3000, -34.724
1459.4000, -34.915
1459.5000, -35.110
1459.6000, -35.308
1459.7000, -35.512
1459.8000, -35.726
1459.9000, -35.933
1460.0000, -36.139
1460.1000, -36.331
1460.2000, -36.501
1460.3000, -36.670
1460.4000, -36.825
1460.5000, -36.957
1460.6000, -37.070
1460.7000, -37.159
1460.8000, -37.215
1460.9000, -37.235
1461.0000, -37.220
1461.1000, -37.171
1461.2000, -37.090
1461.3000, -36.978
1461.4000, -36.836
1461.5000, -36.660
1461.6000, -36.462
1461.7000, -36.251
1461.8000, -36.018
1461.9000, -35.772
1462.0000, -35.518
1462.1000, -35.255
1462.2000, -34.992
1462.3000, -34.728
1462.4000, -34.472
1462.5000, -34.211
1462.6000, -33.957
1462.7000, -33.716
1462.8000, -33.475
1462.9000, -33.230
1463.0000, -32.995
1463.1000, -32.753
1463.2000, -32.532
1463.3000, -32.324
1463.4000, -32.128
1463.5000, -31.935
1463.6000, -31.756
1463.7000, -31.585
1463.8000, -31.429
1463.9000, -31.278
1464.0000, -31.134
1464.1000, -31.003
1464.2000, -30.876
1464.3000, -30.760
1464.4000, -30.657
1464.5000, -30.560
1464.6000, -30.479
1464.7000, -30.408
1464.8000, -30.346
1464.9000, -30.289
1465.0000, -30.235
1465.1000, -30.185
1465.2000, -30.148
1465.3000, -30.126
1465.4000, -30.115
1465.5000, -30.113
1465.6000, -30.116
1465.7000, -30.126
1465.8000, -30.153
1465.9000, -30.187
1466.0000, -30.229
1466.1000, -30.282
1466.2000, -30.343
1466.3000, -30.412
1466.4000, -30.496
1466.5000, -30.592
1466.6000, -30.694
1466.7000, -30.802
1466.8000, -30.923
1466.9000, -31.046
1467.0000, -31.182
1467.1000, -31.328
1467.2000, -31.491
1467.3000, -31.668
1467.4000, -31.850
1467.5000, -32.038
1467.6000, -32.234
1467.7000, -32.433
1467.8000, -32.650
1467.9000, -32.872
1468.0000, -33.099
1468.1000, -33.328
1468.2000, -33.556
1468.3000, -33.790
1468.4000, -34.020
1468.5000, -34.246
1468.6000, -34.462
1468.7000, -34.657
1468.8000, -34.858
1468.9000, -35.024
1469.0000, -35.170
1469.1000, -35.300
1469.2000, -35.370
1469.3000, -35.402
1469.4000, -35.390
1469.5000, -35.324
1469.6000, -35.224
1469.7000, -35.091
1469.8000, -34.926
1469.9000, -34.734
1470.0000, -34.510
1470.1000, -34.274
1470.2000, -34.016
1470.3000, -33.738
1470.4000, -33.449
1470.5000, -33.158
1470.6000, -32.846
1470.7000, -32.544
1470.8000, -32.249
1470.9000, -31.954
1471.0000, -31.664
1471.1000, -31.388
1471.2000, -31.122
1471.3000, -30.869
1471.4000, -30.609
1471.5000, -30.373
1471.6000, -30.139
1471.7000, -29.913
1471.8000, -29.724
1471.9000, -29.527
1472.0000, -29.337
1472.1000, -29.155
1472.2000, -28.964
1472.3000, -28.792
1472.4000, -28.637
1472.5000, -28.497
1472.6000, -28.371
1472.7000, -28.249
1472.8000, -28.139
1472.9000, -28.039
1473.0000, -27.945
1473.1000, -27.861
1473.2000, -27.792
1473.3000, -27.728
1473.4000, -27.673
1473.5000, -27.627
1473.6000, -27.585
1473.7000, -27.552
1473.8000, -27.534
1473.9000, -27.526
1474.0000, -27.530
1474.1000, -27.539
1474.2000, -27.561
1474.3000, -27.590
1474.4000, -27.629
1474.5000, -27.681
1474.6000, -27.740
1474.7000, -27.810
1474.8000, -27.889
1474.9000, -27.980
1475.0000, -28.079
1475.1000, -28.191
1475.2000, -28.313
1475.3000, -28.447
1475.4000, -28.591
1475.5000, -28.745
1475.6000, -28.908
1475.7000, -29.074
1475.8000, -29.252
1475.9000, -29.447
1476.0000, -29.654
1476.1000, -29.873
1476.2000, -30.097
1476.3000, -30.332
1476.4000, -30.580
1476.5000, -30.834
1476.6000, -31.092
1476.7000, -31.352
1476.8000, -31.615
1476.9000, -31.870
1477.0000, -32.119
1477.1000, -32.371
1477.2000, -32.607
1477.3000, -32.844
1477.4000, -33.054
1477.5000, -33.233
1477.6000, -33.372
1477.7000, -33.458
1477.8000, -33.509
1477.9000, -33.516
1478.0000, -33.472
1478.1000, -33.385
1478.2000, -33.249
1478.3000, -33.079
1478.4000, -32.872
1478.5000, -32.629
1478.6000, -32.366
1478.7000, -32.079
1478.8000, -31.773
1478.9000, -31.462
1479.0000, -31.151
1479.1000, -30.834
1479.2000, -30.510
1479.3000, -30.191
1479.4000, -29.877
1479.5000, -29.574
1479.6000, -29.279
1479.7000, -28.993
1479.8000, -28.731
1479.9000, -28.476
1480.0000, -28.215
1480.1000, -27.977
1480.2000, -27.741
1480.3000, -27.509
1480.4000, -27.293
1480.5000, -27.091
1480.6000, -26.896
1480.7000, -26.712
1480.8000, -26.540
1480.9000, -26.378
1481.0000, -26.228
1481.1000, -26.097
1481.2000, -25.975
1481.3000, -25.856
1481.4000, -25.747
1481.5000, -25.647
1481.6000, -25.552
1481.7000, -25.471
1481.8000, -25.398
1481.9000, -25.335
1482.0000, -25.280
1482.1000, -25.238
1482.2000, -25.206
1482.3000, -25.184
1482.4000, -25.171
1482.5000, -25.169
1482.6000, -25.179
1482.7000, -25.196
1482.8000, -25.220
1482.9000, -25.254
1483.0000, -25.298
1483.1000, -25.354
1483.2000, -25.421
1483.3000, -25.497
1483.4000, -25.582
1483.5000, -25.679
1483.6000, -25.789
1483.7000, -25.910
1483.8000, -26.044
1483.9000, -26.188
1484.0000, -26.343
1484.1000, -26.507
1484.2000, -26.679
1484.3000, -26.862
1484.4000, -27.057
1484.5000, -27.265
1484.6000, -27.489
1484.7000, -27.725
1484.8000, -27.969
1484.9000, -28.225
1485.0000, -28.495
1485.1000, -28.773
1485.2000, -29.058
1485.3000, -29.348
1485.4000, -29.646
1485.5000, -29.945
1485.6000, -30.243
1485.7000, -30.535
1485.8000, -30.820
1485.9000, -31.088
1486.0000, -31.337
1486.1000, -31.565
1486.2000, -31.757
1486.3000, -31.899
1486.4000, -31.986
1486.5000, -32.022
1486.6000, -31.998
1486.7000, -31.925
1486.8000, -31.798
1486.9000, -31.618
1487.0000, -31.392
1487.1000, -31.133
1487.2000, -30.847
1487.3000, -30.532
1487.4000, -30.201
1487.5000, -29.856
1487.6000, -29.507
1487.7000, -29.159
1487.8000, -28.815
1487.9000, -28.469
1488.0000, -28.135
1488.1000, -27.814
1488.2000, -27.502
1488.3000, -27.196
1488.4000, -26.901
1488.5000, -26.616
1488.6000, -26.350
1488.7000, -26.093
1488.8000, -25.847
1488.9000, -25.605
1489.0000, -25.372
1489.1000, -25.154
1489.2000, -24.954
1489.3000, -24.761
1489.4000, -24.577
1489.5000, -24.400
1489.6000, -24.237
1489.7000, -24.085
1489.8000, -23.948
1489.9000, -23.815
1490.0000, -23.695
1490.1000, -23.585
1490.2000, -23.487
1490.3000, -23.393
1490.4000, -23.309
1490.5000, -23.234
1490.6000, -23.169
1490.7000, -23.113
1490.8000, -23.068
1490.9000, -23.034
1491.0000, -23.009
1491.1000, -22.992
1491.2000, -22.985
1491.3000, -22.986
1491.4000, -22.997
1491.5000, -23.021
1491.6000, -23.058
1491.7000, -23.104
1491.8000, -23.159
1491.9000, -23.222
1492.0000, -23.296
1492.1000, -23.383
1492.2000, -23.480
1492.3000, -23.592
1492.4000, -23.713
1492.5000, -23.843
1492.6000, -23.985
1492.7000, -24.140
1492.8000, -24.303
1492.9000, -24.483
1493.0000, -24.674
1493.1000, -24.875
1493.2000, -25.093
1493.3000, -25.330
1493.4000, -25.575
1493.5000, -25.832
1493.6000, -26.104
1493.7000, -26.397
1493.8000, -26.704
1493.9000, -27.022
1494.0000, -27.345
1494.1000, -27.683
1494.2000, -28.031
1494.3000, -28.386
1494.4000, -28.737
1494.5000, -29.092
1494.6000, -29.448
1494.7000, -29.792
1494.8000, -30.103
1494.9000, -30.381
1495.0000, -30.610
1495.1000, -30.777
1495.2000, -30.880
1495.3000, -30.910
1495.4000, -30.864
1495.5000, -30.743
1495.6000, -30.550
1495.7000, -30.306
1495.8000, -30.015
1495.9000, -29.682
1496.0000, -29.318
1496.1000, -28.933
1496.2000, -28.547
1496.3000, -28.154
1496.4000, -27.758
1496.5000, -27.358
1496.6000, -26.969
1496.7000, -26.596
1496.8000, -26.226
1496.9000, -25.868
1497.0000, -25.524
1497.1000, -25.194
1497.2000, -24.887
1497.3000, -24.585
1497.4000, -24.300
1497.5000, -24.023
1497.6000, -23.758
1497.7000, -23.507
1497.8000, -23.272
1497.9000, -23.054
1498.0000, -22.841
1498.1000, -22.642
1498.2000, -22.459
1498.3000, -22.285
1498.4000, -22.120
1498.5000, -21.966
1498.6000, -21.825
1498.7000, -21.693
1498.8000, -21.572
1498.9000, -21.455
1499.0000, -21.347
1499.1000, -21.251
1499.2000, -21.166
1499.3000, -21.091
1499.4000, -21.023
1499.5000, -20.964
1499.6000, -20.916
1499.7000, -20.878
1499.8000, -20.850
1499.9000, -20.832
1500.0000, -20.824
1500.1000, -20.826
1500.2000, -20.840
1500.3000, -20.863
1500.4000, -20.894
1500.5000, -20.936
1500.6000, -20.987
1500.7000, -21.047
1500.8000, -21.120
1500.9000, -21.205
1501.0000, -21.298
1501.1000, -21.402
1501.2000, -21.521
1501.3000, -21.652
1501.4000, -21.789
1501.5000, -21.943
1501.6000, -22.109
1501.7000, -22.290
1501.8000, -22.488
1501.9000, -22.705
1502.0000, -22.936
1502.1000, -23.180
1502.2000, -23.444
1502.3000, -23.726
1502.4000, -24.027
1502.5000, -24.344
1502.6000, -24.690
1502.7000, -25.045
1502.8000, -25.421
1502.9000, -25.816
1503.0000, -26.234
1503.1000, -26.671
1503.2000, -27.123
1503.3000, -27.596
1503.4000, -28.082
1503.5000, -28.576
1503.6000, -29.061
1503.7000, -29.533
1503.8000, -29.972
1503.9000, -30.359
1504.0000, -30.668
1504.1000, -30.872
1504.2000, -30.952
1504.3000, -30.898
1504.4000, -30.707
1504.5000, -30.403
1504.6000, -29.999
1504.7000, -29.518
1504.8000, -28.993
1504.9000, -28.437
1505.0000, -27.867
1505.1000, -27.311
1505.2000, -26.757
1505.3000, -26.234
1505.4000, -25.724
1505.5000, -25.228
1505.6000, -24.774
1505.7000, -24.342
1505.8000, -23.932
1505.9000, -23.553
1506.0000, -23.190
1506.1000, -22.838
1506.2000, -22.510
1506.3000, -22.199
1506.4000, -21.913
1506.5000, -21.640
1506.6000, -21.376
1506.7000, -21.137
1506.8000, -20.908
1506.9000, -20.692
1507.0000, -20.485
1507.1000, -20.294
1507.2000, -20.118
1507.3000, -19.953
1507.4000, -19.790
1507.5000, -19.644
1507.6000, -19.507
1507.7000, -19.382
1507.8000, -19.269
1507.9000, -19.163
1508.0000, -19.067
1508.1000, -18.985
1508.2000, -18.912
1508.3000, -18.851
1508.4000, -18.797
1508.5000, -18.754
1508.6000, -18.721
1508.7000, -18.699
1508.8000, -18.689
1508.9000, -18.688
1509.0000, -18.696
1509.1000, -18.716
1509.2000, -18.746
1509.3000, -18.787
1509.4000, -18.840
1509.5000, -18.900
1509.6000, -18.972
1509.7000, -19.055
1509.8000, -19.154
1509.9000, -19.261
1510.0000, -19.380
1510.1000, -19.513
1510.2000, -19.658
1510.3000, -19.812
1510.4000, -19.982
1510.5000, -20.172
1510.6000, -20.375
1510.7000, -20.589
1510.8000, -20.825
1510.9000, -21.085
1511.0000, -21.363
1511.1000, -21.662
1511.2000, -21.990
1511.3000, -22.339
1511.4000, -22.717
1511.5000, -23.130
1511.6000, -23.573
1511.7000, -24.054
1511.8000, -24.591
1511.9000, -25.153
1512.0000, -25.781
1512.1000, -26.458
1512.2000, -27.179
1512.3000, -27.994
1512.4000, -28.833
1512.5000, -29.715
1512.6000, -30.626
1512.7000, -31.481
1512.8000, -32.183
1512.9000, -32.629
1513.0000, -32.721
1513.1000, -32.414
1513.2000, -31.782
1513.3000, -30.949
1513.4000, -30.012
1513.5000, -29.077
1513.6000, -28.161
1513.7000, -27.279
1513.8000, -26.463
1513.9000, -25.693
1514.0000, -24.968
1514.1000, -24.305
1514.2000, -23.694
1514.3000, -23.120
1514.4000, -22.580
1514.5000, -22.072
1514.6000, -21.599
1514.7000, -21.152
1514.8000, -20.759
1514.9000, -20.337
1515.0000, -19.970
1515.1000, -19.620
1515.2000, -19.290
1515.3000, -18.985
1515.4000, -18.695
1515.5000, -18.421
1515.6000, -18.164
1515.7000, -17.928
1515.8000, -17.705
1515.9000, -17.498
1516.0000, -17.305
1516.1000, -17.123
1516.2000, -16.953
1516.3000, -16.797
1516.4000, -16.654
1516.5000, -16.522
1516.6000, -16.403
1516.7000, -16.294
1516.8000, -16.201
1516.9000, -16.115
1517.0000, -16.040
1517.1000, -15.976
1517.2000, -15.925
1517.3000, -15.884
1517.4000, -15.853
1517.5000, -15.831
1517.6000, -15.820
1517.7000, -15.819
1517.8000, -15.831
1517.9000, -15.850
1518.0000, -15.879
1518.1000, -15.917
1518.2000, -15.966
1518.3000, -16.026
1518.4000, -16.095
1518.5000, -16.174
1518.6000, -16.262
1518.7000, -16.359
1518.8000, -16.466
1518.9000, -16.584
1519.0000, -16.711
1519.1000, -16.850
1519.2000, -17.001
1519.3000, -17.163
1519.4000, -17.338
1519.5000, -17.526
1519.6000, -17.728
1519.7000, -17.946
1519.8000, -18.178
1519.9000, -18.427
1520.0000, -18.689
1520.1000, -18.973
1520.2000, -19.280
1520.3000, -19.604
1520.4000, -19.950
1520.5000, -20.324
1520.6000, -20.721
1520.7000, -21.146
1520.8000, -21.595
1520.9000, -22.077
1521.0000, -22.588
1521.1000, -23.120
1521.2000, -23.668
1521.3000, -24.187
1521.4000, -24.800
1521.5000, -25.344
1521.6000, -25.856
1521.7000, -26.302
1521.8000, -26.603
1521.9000, -26.755
1522.0000, -26.720
1522.1000, -26.489
1522.2000, -26.091
1522.3000, -25.549
1522.4000, -24.919
1522.5000, -24.235
1522.6000, -23.521
1522.7000, -22.807
1522.8000, -22.121
1522.9000, -21.451
1523.0000, -20.839
1523.1000, -20.168
1523.2000, -19.580
1523.3000, -18.988
1523.4000, -18.433
1523.5000, -17.917
1523.6000, -17.417
1523.7000, -16.943
1523.8000, -16.496
1523.9000, -16.065
1524.0000, -15.653
1524.1000, -15.271
1524.2000, -14.911
1524.3000, -14.566
1524.4000, -14.242
1524.5000, -13.928
1524.6000, -13.637
1524.7000, -13.359
1524.8000, -13.100
1524.9000, -12.856
1525.0000, -12.628
1525.1000, -12.416
1525.2000, -12.220
1525.3000, -12.038
1525.4000, -11.871
1525.5000, -11.719
1525.6000, -11.582
1525.7000, -11.456
1525.8000, -11.345
1525.9000, -11.246
1526.0000, -11.160
1526.1000, -11.084
1526.2000, -11.022
1526.3000, -10.972
1526.4000, -10.932
1526.5000, -10.905
1526.6000, -10.889
1526.7000, -10.884
1526.8000, -10.890
1526.9000, -10.906
1527.0000, -10.931
1527.1000, -10.963
1527.2000, -11.006
1527.3000, -11.057
1527.4000, -11.112
1527.5000, -11.177
1527.6000, -11.250
1527.7000, -11.329
1527.8000, -11.415
1527.9000, -11.509
1528.0000, -11.610
1528.1000, -11.717
1528.2000, -11.829
1528.3000, -11.949
1528.4000, -12.073
1528.5000, -12.204
1528.6000, -12.342
1528.7000, -12.489
1528.8000, -12.644
1528.9000, -12.809
1529.0000, -12.982
1529.1000, -13.165
1529.2000, -13.356
1529.3000, -13.559
1529.4000, -13.774
1529.5000, -14.000
1529.6000, -14.238
1529.7000, -14.487
1529.8000, -14.738
1529.9000, -15.002
1530.0000, -15.278
1530.1000, -15.560
1530.2000, -15.851
1530.3000, -16.145
1530.4000, -16.447
1530.5000, -16.752
1530.6000, -17.055
1530.7000, -17.359
1530.8000, -17.665
1530.9000, -17.971
1531.0000, -18.276
1531.1000, -18.577
1531.2000, -18.871
1531.3000, -19.154
1531.4000, -19.427
1531.5000, -19.683
1531.6000, -19.912
1531.7000, -20.101
1531.8000, -20.245
1531.9000, -20.334
1532.0000, -20.361
1532.1000, -20.321
1532.2000, -20.212
1532.3000, -20.037
1532.4000, -19.806
1532.5000, -19.518
1532.6000, -19.181
1532.7000, -18.811
1532.8000, -18.409
1532.9000, -17.995
1533.0000, -17.560
1533.1000, -17.115
1533.2000, -16.659
1533.3000, -16.206
1533.4000, -15.760
1533.5000, -15.319
1533.6000, -14.876
1533.7000, -14.451
1533.8000, -14.037
1533.9000, -13.633
1534.0000, -13.240
1534.1000, -12.861
1534.2000, -12.493
1534.3000, -12.143
1534.4000, -11.803
1534.5000, -11.472
1534.6000, -11.151
1534.7000, -10.846
1534.8000, -10.548
1534.9000, -10.275
1535.0000, -10.014
1535.1000,  -9.766
1535.2000,  -9.532
1535.3000,  -9.306
1535.4000,  -9.098
1535.5000,  -8.907
1535.6000,  -8.728
1535.7000,  -8.563
1535.8000,  -8.412
1535.9000,  -8.276
1536.0000,  -8.153
1536.1000,  -8.048
1536.2000,  -7.957
1536.3000,  -7.881
1536.4000,  -7.821
1536.5000,  -7.777
1536.6000,  -7.750
1536.7000,  -7.738
1536.8000,  -7.746
1536.9000,  -7.770
1537.0000,  -7.809
1537.1000,  -7.865
1537.2000,  -7.939
1537.3000,  -8.031
1537.4000,  -8.143
1537.5000,  -8.272
1537.6000,  -8.424
1537.7000,  -8.591
1537.8000,  -8.777
1537.9000,  -8.987
1538.0000,  -9.217
1538.1000,  -9.463
1538.2000,  -9.731
1538.3000, -10.017
1538.4000, -10.321
1538.5000, -10.643
1538.6000, -10.984
1538.7000, -11.345
1538.8000, -11.721
1538.9000, -12.113
1539.0000, -12.517
1539.1000, -12.923
1539.2000, -13.341
1539.3000, -13.765
1539.4000, -14.152
1539.5000, -14.589
1539.6000, -14.949
1539.7000, -15.306
1539.8000, -15.635
1539.9000, -15.906
1540.0000, -16.139
1540.1000, -16.333
1540.2000, -16.488
1540.3000, -16.607
1540.4000, -16.692
1540.5000, -16.752
1540.6000, -16.801
1540.7000, -16.846
1540.8000, -16.900
1540.9000, -16.972
1541.0000, -17.075
1541.1000, -17.216
1541.2000, -17.406
1541.3000, -17.655
1541.4000, -17.970
1541.5000, -18.374
1541.6000, -18.875
1541.7000, -19.486
1541.8000, -20.221
1541.9000, -21.110
1542.0000, -22.156
1542.1000, -23.397
1542.2000, -24.941
1542.3000, -26.278
1542.4000, -27.530
1542.5000, -28.095
1542.6000, -27.735
1542.7000, -26.791
1542.8000, -25.726
1542.9000, -24.829
1543.0000, -24.202
1543.1000, -23.936
1543.2000, -24.143
1543.3000, -24.936
1543.4000, -26.159
1543.5000, -26.966
1543.6000, -26.193
1543.7000, -24.275
1543.8000, -22.498
1543.9000, -21.167
1544.0000, -20.199
1544.1000, -19.655
1544.2000, -19.151
1544.3000, -18.753
1544.4000, -18.413
1544.5000, -18.065
1544.6000, -17.780
1544.7000, -17.521
1544.8000, -17.237
1544.9000, -16.949
1545.0000, -16.605
1545.1000, -16.198
1545.2000, -15.795
1545.3000, -15.383
1545.4000, -15.047
1545.5000, -14.813
1545.6000, -14.684
1545.7000, -14.661
1545.8000, -14.721
1545.9000, -14.758
1546.0000, -14.760
1546.1000, -14.689
1546.2000, -14.565
1546.3000, -14.475
1546.4000, -14.433
1546.5000, -14.407
1546.6000, -14.354
1546.7000, -14.191
1546.8000, -13.908
1546.9000, -13.637
1547.0000, -13.440
1547.1000, -13.382
1547.2000, -13.412
1547.3000, -13.362
1547.4000, -13.096
1547.5000, -12.669
1547.6000, -12.185
1547.7000, -11.824
1547.8000, -11.619
1547.9000, -11.475
1548.0000, -11.260
1548.1000, -10.909
1548.2000, -10.434
1548.3000, -10.020
1548.4000,  -9.703
1548.5000,  -9.454
1548.6000,  -9.201
1548.7000,  -8.833
1548.8000,  -8.374
1548.9000,  -7.976
1549.0000,  -7.757
1549.1000,  -7.754
1549.2000,  -7.958
1549.3000,  -8.200
1549.4000,  -8.298
1549.5000,  -8.158
1549.6000,  -7.846
1549.7000,  -7.503
1549.8000,  -7.267
1549.9000,  -7.130
1550.0000,  -7.055
1550.1000,  -6.989
1550.2000,  -6.894
1550.3000,  -6.801
1550.4000,  -6.769
1550.5000,  -6.797
1550.6000,  -6.877
1550.7000,  -6.974
1550.8000,  -7.014
1550.9000,  -7.006
1551.0000,  -6.980
1551.1000,  -6.965
1551.2000,  -6.997
1551.3000,  -7.079
1551.4000,  -7.151
1551.5000,  -7.207
1551.6000,  -7.227
1551.7000,  -7.224
1551.8000,  -7.253
1551.9000,  -7.339
1552.0000,  -7.463
1552.1000,  -7.628
1552.2000,  -7.783
1552.3000,  -7.903
1552.4000,  -8.021
1552.5000,  -8.153
1552.6000,  -8.275
1552.7000,  -8.373
1552.8000,  -8.364
1552.9000,  -8.210
1553.0000,  -7.973
1553.1000,  -7.709
1553.2000,  -7.481
1553.3000,  -7.330
1553.4000,  -7.206
1553.5000,  -7.048
1553.6000,  -6.846
1553.7000,  -6.570
1553.8000,  -6.234
1553.9000,  -5.878
1554.0000,  -5.515
1554.1000,  -5.156
1554.2000,  -4.860
1554.3000,  -4.613
1554.4000,  -4.439
1554.5000,  -4.341
1554.6000,  -4.301
1554.7000,  -4.316
1554.8000,  -4.421
1554.9000,  -4.624
1555.0000,  -4.982
1555.1000,  -5.532
1555.2000,  -6.294
1555.3000,  -7.312
1555.4000,  -8.578
1555.5000,  -9.998
1555.6000, -11.370
1555.7000, -12.045
1555.8000, -11.485
1555.9000, -10.328
1556.0000,  -9.219
1556.1000,  -8.514
1556.2000,  -8.255
1556.3000,  -8.375
1556.4000,  -8.757
1556.5000,  -9.277
1556.6000,  -9.894
1556.7000, -10.519
1556.8000, -11.136
1556.9000, -11.724
1557.0000, -12.277
1557.1000, -12.796
1557.2000, -13.260
1557.3000, -13.681
1557.4000, -14.042
1557.5000, -14.438
1557.6000, -14.778
1557.7000, -15.112
1557.8000, -15.448
1557.9000, -15.752
1558.0000, -16.054
1558.1000, -16.346
1558.2000, -16.616
1558.3000, -16.862
1558.4000, -17.076
1558.5000, -17.244
1558.6000, -17.364
1558.7000, -17.424
1558.8000, -17.429
1558.9000, -17.381
1559.0000, -17.281
1559.1000, -17.134
1559.2000, -16.952
1559.3000, -16.743
1559.4000, -16.515
1559.5000, -16.270
1559.6000, -16.017
1559.7000, -15.761
1559.8000, -15.506
1559.9000, -15.257
1560.0000, -15.017
1560.1000, -14.788
1560.2000, -14.572
1560.3000, -14.371
1560.4000, -14.179
1560.5000, -14.003
1560.6000, -13.844
1560.7000, -13.703
1560.8000, -13.576
1560.9000, -13.462
1561.0000, -13.367
1561.1000, -13.286
1561.2000, -13.222
1561.3000, -13.177
1561.4000, -13.146
1561.5000, -13.130
1561.6000, -13.130
1561.7000, -13.143
1561.8000, -13.171
1561.9000, -13.211
1562.0000, -13.266
1562.1000, -13.331
1562.2000, -13.407
1562.3000, -13.495
1562.4000, -13.590
1562.5000, -13.700
1562.6000, -13.819
1562.7000, -13.943
1562.8000, -14.072
1562.9000, -14.202
1563.0000, -14.334
1563.1000, -14.467
1563.2000, -14.600
1563.3000, -14.731
1563.4000, -14.860
1563.5000, -14.985
1563.6000, -15.107
1563.7000, -15.222
1563.8000, -15.330
1563.9000, -15.432
1564.0000, -15.525
1564.1000, -15.609
1564.2000, -15.680
1564.3000, -15.739
1564.4000, -15.785
1564.5000, -15.816
1564.6000, -15.833
1564.7000, -15.836
1564.8000, -15.822
1564.9000, -15.792
1565.0000, -15.746
1565.1000, -15.685
1565.2000, -15.608
1565.3000, -15.515
1565.4000, -15.404
1565.5000, -15.282
1565.6000, -15.146
1565.7000, -15.001
1565.8000, -14.850
1565.9000, -14.696
1566.0000, -14.541
1566.1000, -14.387
1566.2000, -14.242
1566.3000, -14.106
1566.4000, -13.980
1566.5000, -13.872
1566.6000, -13.781
1566.7000, -13.707
1566.8000, -13.655
1566.9000, -13.626
1567.0000, -13.622
1567.1000, -13.649
1567.2000, -13.709
1567.3000, -13.799
1567.4000, -13.924
1567.5000, -14.086
1567.6000, -14.278
1567.7000, -14.504
1567.8000, -14.766
1567.9000, -15.068
1568.0000, -15.392
1568.1000, -15.749
1568.2000, -16.136
1568.3000, -16.535
1568.4000, -16.937
1568.5000, -17.341
1568.6000, -17.752
1568.7000, -18.160
1568.8000, -18.566
1568.9000, -18.971
1569.0000, -19.373
1569.1000, -19.796
1569.2000, -20.236
1569.3000, -20.697
1569.4000, -21.184
1569.5000, -21.692
1569.6000, -22.227
1569.7000, -22.781
1569.8000, -23.338
1569.9000, -23.839
1570.0000, -24.358
1570.1000, -24.756
1570.2000, -25.048
1570.3000, -25.172
1570.4000, -25.116
1570.5000, -24.886
1570.6000, -24.501
1570.7000, -23.996
1570.8000, -23.424
1570.9000, -22.808
1571.0000, -22.169
1571.1000, -21.538
1571.2000, -20.918
1571.3000, -20.344
1571.4000, -19.759
1571.5000, -19.233
1571.6000, -18.721
1571.7000, -18.249
1571.8000, -17.794
1571.9000, -17.376
1572.0000, -16.987
1572.1000, -16.619
1572.2000, -16.263
1572.3000, -15.931
1572.4000, -15.617
1572.5000, -15.324
1572.6000, -15.048
1572.7000, -14.786
1572.8000, -14.541
1572.9000, -14.311
1573.0000, -14.093
1573.1000, -13.887
1573.2000, -13.695
1573.3000, -13.516
1573.4000, -13.345
1573.5000, -13.180
1573.6000, -13.023
1573.7000, -12.871
1573.8000, -12.727
1573.9000, -12.590
1574.0000, -12.460
1574.1000, -12.337
1574.2000, -12.220
1574.3000, -12.108
1574.4000, -12.003
1574.5000, -11.904
1574.6000, -11.815
1574.7000, -11.731
1574.8000, -11.654
1574.9000, -11.584
1575.0000, -11.520
1575.1000, -11.463
1575.2000, -11.412
1575.3000, -11.368
1575.4000, -11.335
1575.5000, -11.309
1575.6000, -11.292
1575.7000, -11.285
1575.8000, -11.286
1575.9000, -11.296
1576.0000, -11.316
1576.1000, -11.349
1576.2000, -11.393
1576.3000, -11.447
1576.4000, -11.515
1576.5000, -11.593
1576.6000, -11.684
1576.7000, -11.785
1576.8000, -11.900
1576.9000, -12.030
1577.0000, -12.175
1577.1000, -12.333
1577.2000, -12.504
1577.3000, -12.688
1577.4000, -12.890
1577.5000, -13.106
1577.6000, -13.339
1577.7000, -13.589
1577.8000, -13.856
1577.9000, -14.142
1578.0000, -14.442
1578.1000, -14.760
1578.2000, -15.103
1578.3000, -15.461
1578.4000, -15.840
1578.5000, -16.242
1578.6000, -16.663
1578.7000, -17.105
1578.8000, -17.560
1578.9000, -18.028
1579.0000, -18.509
1579.1000, -19.006
1579.2000, -19.504
1579.3000, -19.988
1579.4000, -20.446
1579.5000, -20.850
1579.6000, -21.173
1579.7000, -21.399
1579.8000, -21.503
1579.9000, -21.472
1580.0000, -21.306
1580.1000, -21.022
1580.2000, -20.647
1580.3000, -20.193
1580.4000, -19.701
1580.5000, -19.175
1580.6000, -18.648
1580.7000, -18.124
1580.8000, -17.614
1580.9000, -17.132
1581.0000, -16.663
1581.1000, -16.218
1581.2000, -15.803
1581.3000, -15.406
1581.4000, -15.033
1581.5000, -14.692
1581.6000, -14.378
1581.7000, -14.073
1581.8000, -13.789
1581.9000, -13.527
1582.0000, -13.279
1582.1000, -13.051
1582.2000, -12.835
1582.3000, -12.639
1582.4000, -12.456
1582.5000, -12.287
1582.6000, -12.128
1582.7000, -11.983
1582.8000, -11.850
1582.9000, -11.729
1583.0000, -11.620
1583.1000, -11.524
1583.2000, -11.435
1583.3000, -11.360
1583.4000, -11.293
1583.5000, -11.237
1583.6000, -11.190
1583.7000, -11.151
1583.8000, -11.121
1583.9000, -11.100
1584.0000, -11.090
1584.1000, -11.088
1584.2000, -11.094
1584.3000, -11.109
1584.4000, -11.131
1584.5000, -11.161
1584.6000, -11.200
1584.7000, -11.250
1584.8000, -11.307
1584.9000, -11.372
1585.0000, -11.444
1585.1000, -11.523
1585.2000, -11.612
1585.3000, -11.710
1585.4000, -11.815
1585.5000, -11.930
1585.6000, -12.048
1585.7000, -12.175
1585.8000, -12.309
1585.9000, -12.455
1586.0000, -12.611
1586.1000, -12.776
1586.2000, -12.950
1586.3000, -13.132
1586.4000, -13.324
1586.5000, -13.524
1586.6000, -13.736
1586.7000, -13.955
1586.8000, -14.186
1586.9000, -14.427
1587.0000, -14.673
1587.1000, -14.927
1587.2000, -15.194
1587.3000, -15.471
1587.4000, -15.749
1587.5000, -16.036
1587.6000, -16.329
1587.7000, -16.622
1587.8000, -16.915
1587.9000, -17.207
1588.0000, -17.493
1588.1000, -17.771
1588.2000, -18.035
1588.3000, -18.278
1588.4000, -18.498
1588.5000, -18.688
1588.6000, -18.843
1588.7000, -18.958
1588.8000, -19.033
1588.9000, -19.063
1589.0000, -19.048
1589.1000, -18.992
1589.2000, -18.894
1589.3000, -18.760
1589.4000, -18.595
1589.5000, -18.401
1589.6000, -18.184
1589.7000, -17.954
1589.8000, -17.715
1589.9000, -17.467
1590.0000, -17.220
1590.1000, -16.971
1590.2000, -16.714
1590.3000, -16.467
1590.4000, -16.225
1590.5000, -15.990
1590.6000, -15.763
1590.7000, -15.542
1590.8000, -15.336
1590.9000, -15.134
1591.0000, -14.938
1591.1000, -14.758
1591.2000, -14.589
1591.3000, -14.429
1591.4000, -14.279
1591.5000, -14.135
1591.6000, -14.002
1591.7000, -13.882
1591.8000, -13.770
1591.9000, -13.670
1592.0000, -13.577
1592.1000, -13.496
1592.2000, -13.425
1592.3000, -13.362
1592.4000, -13.309
1592.5000, -13.263
1592.6000, -13.229
1592.7000, -13.204
1592.8000, -13.186
1592.9000, -13.177
1593.0000, -13.177
1593.1000, -13.186
1593.2000, -13.205
1593.3000, -13.231
1593.4000, -13.262
1593.5000, -13.303
1593.6000, -13.353
1593.7000, -13.409
1593.8000, -13.474
1593.9000, -13.549
1594.0000, -13.631
1594.1000, -13.722
1594.2000, -13.821
1594.3000, -13.926
1594.4000, -14.039
1594.5000, -14.159
1594.6000, -14.285
1594.7000, -14.422
1594.8000, -14.568
1594.9000, -14.719
1595.0000, -14.876
1595.1000, -15.044
1595.2000, -15.216
1595.3000, -15.393
1595.4000, -15.578
1595.5000, -15.770
1595.6000, -15.967
1595.7000, -16.175
1595.8000, -16.392
1595.9000, -16.611
1596.0000, -16.838
1596.1000, -17.068
1596.2000, -17.302
1596.3000, -17.542
1596.4000, -17.786
1596.5000, -18.031
1596.6000, -18.273
1596.7000, -18.512
1596.8000, -18.748
1596.9000, -18.978
1597.0000, -19.208
1597.1000, -19.426
1597.2000, -19.635
1597.3000, -19.824
1597.4000, -19.999
1597.5000, -20.159
1597.6000, -20.297
1597.7000, -20.412
1597.8000, -20.503
1597.9000, -20.567
1598.0000, -20.604
1598.1000, -20.613
1598.2000, -20.597
1598.3000, -20.555
1598.4000, -20.493
1598.5000, -20.408
1598.6000, -20.303
1598.7000, -20.180
1598.8000, -20.044
1598.9000, -19.899
1599.0000, -19.742
1599.1000, -19.580
1599.2000, -19.412
1599.3000, -19.241
1599.4000, -19.072
1599.5000, -18.901
1599.6000, -18.736
1599.7000, -18.569
1599.8000, -18.407
1599.9000, -18.251
1600.0000, -18.100
1600.1000, -17.953
1600.2000, -17.812
1600.3000, -17.677
1600.4000, -17.548
1600.5000, -17.426
1600.6000, -17.306
1600.7000, -17.194
1600.8000, -17.092
1600.9000, -16.999
1601.0000, -16.910
1601.1000, -16.824
1601.2000, -16.745
1601.3000, -16.676
1601.4000, -16.616
1601.5000, -16.561
1601.6000, -16.512
1601.7000, -16.471
1601.8000, -16.438
1601.9000, -16.411
1602.0000, -16.390
1602.1000, -16.377
1602.2000, -16.372
1602.3000, -16.371
1602.4000, -16.377
1602.5000, -16.389
1602.6000, -16.406
1602.7000, -16.434
1602.8000, -16.464
1602.9000, -16.501
1603.0000, -16.542
1603.1000, -16.589
1603.2000, -16.645
1603.3000, -16.706
1603.4000, -16.773
1603.5000, -16.846
1603.6000, -16.926
1603.7000, -17.015
1603.8000, -17.107
1603.9000, -17.207
1604.0000, -17.313
1604.1000, -17.426
1604.2000, -17.546
1604.3000, -17.673
1604.4000, -17.803
1604.5000, -17.938
1604.6000, -18.077
1604.7000, -18.224
1604.8000, -18.373
1604.9000, -18.530
1605.0000, -18.690
1605.1000, -18.856
1605.2000, -19.028
1605.3000, -19.210
1605.4000, -19.393
1605.5000, -19.575
1605.6000, -19.766
1605.7000, -19.960
1605.8000, -20.159
1605.9000, -20.357
1606.0000, -20.557
1606.1000, -20.756
1606.2000, -20.958
1606.3000, -21.154
1606.4000, -21.348
1606.5000, -21.535
1606.6000, -21.723
1606.7000, -21.902
1606.8000, -22.069
1606.9000, -22.227
1607.0000, -22.375
1607.1000, -22.507
1607.2000, -22.627
1607.3000, -22.728
1607.4000, -22.815
1607.5000, -22.885
1607.6000, -22.934
1607.7000, -22.964
1607.8000, -22.976
1607.9000, -22.969
1608.0000, -22.948
1608.1000, -22.908
1608.2000, -22.847
1608.3000, -22.776
1608.4000, -22.691
1608.5000, -22.594
1608.6000, -22.487
1608.7000, -22.366
1608.8000, -22.241
1608.9000, -22.116
1609.0000, -21.982
1609.1000, -21.841
1609.2000, -21.707
1609.3000, -21.569
1609.4000, -21.434
1609.5000, -21.297
1609.6000, -21.165
1609.7000, -21.033
1609.8000, -20.905
1609.9000, -20.786
1610.0000, -20.664
1610.1000, -20.549
1610.2000, -20.436
1610.3000, -20.329
1610.4000, -20.226
1610.5000, -20.129
1610.6000, -20.033
1610.7000, -19.944
1610.8000, -19.858
1610.9000, -19.783
1611.0000, -19.708
1611.1000, -19.637
1611.2000, -19.575
1611.3000, -19.518
1611.4000, -19.472
1611.5000, -19.428
1611.6000, -19.393
1611.7000, -19.366
1611.8000, -19.345
1611.9000, -19.329
1612.0000, -19.319
1612.1000, -19.312
1612.2000, -19.312
1612.3000, -19.318
1612.4000, -19.328
1612.5000, -19.346
1612.6000, -19.367
1612.7000, -19.393
1612.8000, -19.427
1612.9000, -19.461
1613.0000, -19.502
1613.1000, -19.550
1613.2000, -19.602
1613.3000, -19.661
1613.4000, -19.725
1613.5000, -19.794
1613.6000, -19.871
1613.7000, -19.954
1613.8000, -20.045
1613.9000, -20.139
1614.0000, -20.239
1614.1000, -20.344
1614.2000, -20.454
1614.3000, -20.566
1614.4000, -20.683
1614.5000, -20.806
1614.6000, -20.934
1614.7000, -21.069
1614.8000, -21.204
1614.9000, -21.347
1615.0000, -21.492
1615.1000, -21.639
1615.2000, -21.794
1615.3000, -21.952
1615.4000, -22.114
1615.5000, -22.285
1615.6000, -22.456
1615.7000, -22.629
1615.8000, -22.804
1615.9000, -22.981
1616.0000, -23.165
1616.1000, -23.348
1616.2000, -23.533
1616.3000, -23.732
1616.4000, -23.899
1616.5000, -24.079
1616.6000, -24.260
1616.7000, -24.428
1616.8000, -24.598
1616.9000, -24.764
1617.0000, -24.920
1617.1000, -25.069
1617.2000, -25.212
1617.3000, -25.343
1617.4000, -25.464
1617.5000, -25.578
1617.6000, -25.679
1617.7000, -25.764
1617.8000, -25.837
1617.9000, -25.897
1618.0000, -25.943
1618.1000, -25.974
1618.2000, -25.990
1618.3000, -25.989
1618.4000, -25.972
1618.5000, -25.948
1618.6000, -25.908
1618.7000, -25.854
1618.8000, -25.792
1618.9000, -25.723
1619.0000, -25.645
1619.1000, -25.559
1619.2000, -25.465
1619.3000, -25.370
1619.4000, -25.277
1619.5000, -25.177
1619.6000, -25.076
1619.7000, -24.976
1619.8000, -24.875
1619.9000, -24.777
1620.0000, -24.680
1620.1000, -24.578
1620.2000, -24.483
1620.3000, -24.392
1620.4000, -24.300
1620.5000, -24.212
1620.6000, -24.123
1620.7000, -24.039
1620.8000, -23.956
1620.9000, -23.877
1621.0000, -23.802
1621.1000, -23.732
1621.2000, -23.666
1621.3000, -23.607
1621.4000, -23.552
1621.5000, -23.499
1621.6000, -23.451
1621.7000, -23.408
1621.8000, -23.375
1621.9000, -23.344
1622.0000, -23.321
1622.1000, -23.303
1622.2000, -23.290
1622.3000, -23.280
1622.4000, -23.277
1622.5000, -23.276
1622.6000, -23.280
1622.7000, -23.292
1622.8000, -23.305
1622.9000, -23.320
1623.0000, -23.344
1623.1000, -23.372
1623.2000, -23.408
1623.3000, -23.447
1623.4000, -23.491
1623.5000, -23.542
1623.6000, -23.600
1623.7000, -23.666
1623.8000, -23.736
1623.9000, -23.810
1624.0000, -23.888
1624.1000, -23.974
1624.2000, -24.069
1624.3000, -24.165
1624.4000, -24.264
1624.5000, -24.369
1624.6000, -24.477
1624.7000, -24.591
1624.8000, -24.708
1624.9000, -24.830
1625.0000, -24.958
1625.1000, -25.091
1625.2000, -25.226
1625.3000, -25.369
1625.4000, -25.515
1625.5000, -25.668
1625.6000, -25.825
1625.7000, -25.988
1625.8000, -26.155
1625.9000, -26.328
1626.0000, -26.505
1626.1000, -26.685
1626.2000, -26.866
1626.3000, -27.049
1626.4000, -27.232
1626.5000, -27.418
1626.6000, -27.603
1626.7000, -27.790
1626.8000, -27.976
1626.9000, -28.163
1627.0000, -28.346
1627.1000, -28.526
1627.2000, -28.701
1627.3000, -28.873
1627.4000, -29.042
1627.5000, -29.205
1627.6000, -29.361
1627.7000, -29.509
1627.8000, -29.642
1627.9000, -29.768
1628.0000, -29.882
1628.1000, -29.978
1628.2000, -30.066
1628.3000, -30.140
1628.4000, -30.198
1628.5000, -30.238
1628.6000, -30.263
1628.7000, -30.272
1628.8000, -30.263
1628.9000, -30.239
1629.0000, -30.202
1629.1000, -30.151
1629.2000, -30.089
1629.3000, -30.019
1629.4000, -29.940
1629.5000, -29.853
1629.6000, -29.758
1629.7000, -29.655
1629.8000, -29.557
1629.9000, -29.453
1630.0000, -29.344
1630.1000, -29.235
1630.2000, -29.127
1630.3000, -29.018
1630.4000, -28.908
1630.5000, -28.793
1630.6000, -28.686
1630.7000, -28.580
1630.8000, -28.472
1630.9000, -28.366
1631.0000, -28.258
1631.1000, -28.154
1631.2000, -28.057
1631.3000, -27.961
1631.4000, -27.869
1631.5000, -27.774
1631.6000, -27.691
1631.7000, -27.616
1631.8000, -27.542
1631.9000, -27.472
1632.0000, -27.408
1632.1000, -27.353
1632.2000, -27.305
1632.3000, -27.260
1632.4000, -27.217
1632.5000, -27.183
1632.6000, -27.152
1632.7000, -27.128
1632.8000, -27.105
1632.9000, -27.088
1633.0000, -27.077
1633.1000, -27.070
1633.2000, -27.071
1633.3000, -27.072
1633.4000, -27.080
1633.5000, -27.094
1633.6000, -27.118
1633.7000, -27.145
1633.8000, -27.178
1633.9000, -27.218
1634.0000, -27.268
1634.1000, -27.324
1634.2000, -27.384
1634.3000, -27.447
1634.4000, -27.519
1634.5000, -27.597
1634.6000, -27.678
1634.7000, -27.762
1634.8000, -27.849
1634.9000, -27.943
1635.0000, -28.042
1635.1000, -28.143
1635.2000, -28.245
1635.3000, -28.352
1635.4000, -28.464
1635.5000, -28.578
1635.6000, -28.697
1635.7000, -28.821
1635.8000, -28.951
1635.9000, -29.085
1636.0000, -29.222
1636.1000, -29.365
1636.2000, -29.511
1636.3000, -29.662
1636.4000, -29.820
1636.5000, -29.978
1636.6000, -30.138
1636.7000, -30.301
1636.8000, -30.466
1636.9000, -30.635
1637.0000, -30.803
1637.1000, -30.969
1637.2000, -31.138
1637.3000, -31.309
1637.4000, -31.480
1637.5000, -31.648
1637.6000, -31.817
1637.7000, -31.984
1637.8000, -32.150
1637.9000, -32.315
1638.0000, -32.473
1638.1000, -32.630
1638.2000, -32.779
1638.3000, -32.924
1638.4000, -33.058
1638.5000, -33.192
1638.6000, -33.302
1638.7000, -33.394
1638.8000, -33.479
1638.9000, -33.550
1639.0000, -33.603
1639.1000, -33.643
1639.2000, -33.670
1639.3000, -33.680
1639.4000, -33.672
1639.5000, -33.652
1639.6000, -33.617
1639.7000, -33.575
1639.8000, -33.516
1639.9000, -33.453
1640.0000, -33.376
1640.1000, -33.297
1640.2000, -33.206
1640.3000, -33.108
1640.4000, -33.007
1640.5000, -32.899
1640.6000, -32.794
1640.7000, -32.684
1640.8000, -32.572
1640.9000, -32.455
1641.0000, -32.341
1641.1000, -32.224
1641.2000, -32.105
1641.3000, -31.988
1641.4000, -31.876
1641.5000, -31.767
1641.6000, -31.660
1641.7000, -31.554
1641.8000, -31.451
1641.9000, -31.353
1642.0000, -31.266
1642.1000, -31.180
1642.2000, -31.104
1642.3000, -31.032
1642.4000, -30.967
1642.5000, -30.910
1642.6000, -30.855
1642.7000, -30.805
1642.8000, -30.756
1642.9000, -30.719
1643.0000, -30.684
1643.1000, -30.645
1643.2000, -30.613
1643.3000, -30.585
1643.4000, -30.563
1643.5000, -30.543
1643.6000, -30.527
1643.7000, -30.511
1643.8000, -30.504
1643.9000, -30.501
1644.0000, -30.502
1644.1000, -30.508
1644.2000, -30.522
1644.3000, -30.541
1644.4000, -30.566
1644.5000, -30.593
1644.6000, -30.625
1644.7000, -30.661
1644.8000, -30.705
1644.9000, -30.752
1645.0000, -30.801
1645.1000, -30.854
1645.2000, -30.909
1645.3000, -30.969
1645.4000, -31.030
1645.5000, -31.097
1645.6000, -31.167
1645.7000, -31.245
1645.8000, -31.328
1645.9000, -31.416
1646.0000, -31.507
1646.1000, -31.605
1646.2000, -31.711
1646.3000, -31.823
1646.4000, -31.942
1646.5000, -32.064
1646.6000, -32.191
1646.7000, -32.327
1646.8000, -32.466
1646.9000, -32.606
1647.0000, -32.754
1647.1000, -32.907
1647.2000, -33.061
1647.3000, -33.213
1647.4000, -33.366
1647.5000, -33.519
1647.6000, -33.676
1647.7000, -33.830
1647.8000, -33.985
1647.9000, -34.140
1648.0000, -34.295
1648.1000, -34.452
1648.2000, -34.610
1648.3000, -34.764
1648.4000, -34.920
1648.5000, -35.072
1648.6000, -35.216
1648.7000, -35.355
1648.8000, -35.489
1648.9000, -35.617
1649.0000, -35.736
1649.1000, -35.848
1649.2000, -35.944
1649.3000, -36.031
1649.4000, -36.107
1649.5000, -36.170
1649.6000, -36.220
1649.7000, -36.256
1649.8000, -36.283
1649.9000, -36.297
1650.0000, -36.299
1650.1000, -36.292
1650.2000, -36.274
1650.3000, -36.247
1650.4000, -36.216
1650.5000, -36.168
1650.6000, -36.112
1650.7000, -36.051
1650.8000, -35.989
1650.9000, -35.919
1651.0000, -35.839
1651.1000, -35.757
1651.2000, -35.668
1651.3000, -35.579
1651.4000, -35.486
1651.5000, -35.385
1651.6000, -35.286
1651.7000, -35.180
1651.8000, -35.080
1651.9000, -34.978
1652.0000, -34.877
1652.1000, -34.772
1652.2000, -34.676
1652.3000, -34.583
1652.4000, -34.493
1652.5000, -34.401
1652.6000, -34.318
1652.7000, -34.237
1652.8000, -34.157
1652.9000, -34.085
1653.0000, -34.013
1653.1000, -33.946
1653.2000, -33.882
1653.3000, -33.823
1653.4000, -33.764
1653.5000, -33.706
1653.6000, -33.657
1653.7000, -33.608
1653.8000, -33.564
1653.9000, -33.517
1654.0000, -33.479
1654.1000, -33.447
1654.2000, -33.424
1654.3000, -33.398
1654.4000, -33.380
1654.5000, -33.367
1654.6000, -33.360
1654.7000, -33.363
1654.8000, -33.367
1654.9000, -33.381
1655.0000, -33.401
1655.1000, -33.424
1655.2000, -33.449
1655.3000, -33.480
1655.4000, -33.512
1655.5000, -33.552
1655.6000, -33.596
1655.7000, -33.638
1655.8000, -33.681
1655.9000, -33.727
1656.0000, -33.779
1656.1000, -33.835
1656.2000, -33.894
1656.3000, -33.958
1656.4000, -34.029
1656.5000, -34.106
1656.6000, -34.183
1656.7000, -34.267
1656.8000, -34.356
1656.9000, -34.455
1657.0000, -34.558
1657.1000, -34.661
1657.2000, -34.769
1657.3000, -34.879
1657.4000, -34.997
1657.5000, -35.115
1657.6000, -35.236
1657.7000, -35.356
1657.8000, -35.477
1657.9000, -35.602
1658.0000, -35.727
1658.1000, -35.854
1658.2000, -35.983
1658.3000, -36.114
1658.4000, -36.247
1658.5000, -36.378
1658.6000, -36.512
1658.7000, -36.652
1658.8000, -36.792
1658.9000, -36.931
1659.0000, -37.072
1659.1000, -37.212
1659.2000, -37.351
1659.3000, -37.488
1659.4000, -37.619
1659.5000, -37.745
1659.6000, -37.859
1659.7000, -37.972
1659.8000, -38.070
1659.9000, -38.165
1660.0000, -38.241
1660.1000, -38.316
1660.2000, -38.382
1660.3000, -38.435
1660.4000, -38.474
1660.5000, -38.508
1660.6000, -38.535
1660.7000, -38.550
1660.8000, -38.562
1660.9000, -38.560
1661.0000, -38.554
1661.1000, -38.538
1661.2000, -38.520
1661.3000, -38.491
1661.4000, -38.455
1661.5000, -38.411
1661.6000, -38.362
1661.7000, -38.298
1661.8000, -38.237
1661.9000, -38.162
1662.0000, -38.088
1662.1000, -38.004
1662.2000, -37.916
1662.3000, -37.829
1662.4000, -37.740
1662.5000, -37.650
1662.6000, -37.556
1662.7000, -37.468
1662.8000, -37.382
1662.9000, -37.299
1663.0000, -37.219
1663.1000, -37.141
1663.2000, -37.063
1663.3000, -36.997
1663.4000, -36.929
1663.5000, -36.858
1663.6000, -36.793
1663.7000, -36.725
1663.8000, -36.660
1663.9000, -36.593
1664.0000, -36.524
1664.1000, -36.456
1664.2000, -36.392
1664.3000, -36.332
1664.4000, -36.278
1664.5000, -36.222
1664.6000, -36.170
1664.7000, -36.126
1664.8000, -36.090
1664.9000, -36.061
1665.0000, -36.036
1665.1000, -36.013
1665.2000, -36.008
1665.3000, -36.008
1665.4000, -36.008
1665.5000, -36.014
1665.6000, -36.025
1665.7000, -36.041
1665.8000, -36.058
1665.9000, -36.075
1666.0000, -36.087
1666.1000, -36.111
1666.2000, -36.136
1666.3000, -36.158
1666.4000, -36.183
1666.5000, -36.211
1666.6000, -36.241
1666.7000, -36.282
1666.8000, -36.317
1666.9000, -36.366
1667.0000, -36.422
1667.1000, -36.485
1667.2000, -36.550
1667.3000, -36.619
1667.4000, -36.697
1667.5000, -36.784
1667.6000, -36.878
1667.7000, -36.961
1667.8000, -37.050
1667.9000, -37.140
1668.0000, -37.227
1668.1000, -37.319
1668.2000, -37.407
1668.3000, -37.496
1668.4000, -37.591
1668.5000, -37.684
1668.6000, -37.781
1668.7000, -37.878
1668.8000, -37.982
1668.9000, -38.093
1669.0000, -38.199
1669.1000, -38.321
1669.2000, -38.441
1669.3000, -38.560
1669.4000, -38.688
1669.5000, -38.887
1669.6000, -38.960
1669.7000, -39.089
1669.8000, -39.225
1669.9000, -39.340
1670.0000, -39.459
1670.1000, -39.570
1670.2000, -39.680
1670.3000, -39.780
1670.4000, -39.872
1670.5000, -39.957
1670.6000, -40.028
1670.7000, -40.107
1670.8000, -40.172
1670.9000, -40.235
1671.0000, -40.290
1671.1000, -40.347
1671.2000, -40.399
1671.3000, -40.450
1671.4000, -40.488
1671.5000, -40.527
1671.6000, -40.560
1671.7000, -40.587
1671.8000, -40.605
1671.9000, -40.614
1672.0000, -40.615
1672.1000, -40.610
1672.2000, -40.587
1672.3000, -40.563
1672.4000, -40.527
1672.5000, -40.478
1672.6000, -40.433
1672.7000, -40.372
1672.8000, -40.304
1672.9000, -40.232
1673.0000, -40.169
1673.1000, -40.105
1673.2000, -40.035
1673.3000, -39.965
1673.4000, -39.908
1673.5000, -39.847
1673.6000, -39.790
1673.7000, -39.730
1673.8000, -39.668
1673.9000, -39.615
1674.0000, -39.563
1674.1000, -39.503
1674.2000, -39.441
1674.3000, -39.377
1674.4000, -39.308
1674.5000, -39.245
1674.6000, -39.186
1674.7000, -39.118
1674.8000, -39.054
1674.9000, -38.996
1675.0000, -38.937
1675.1000, -38.874
1675.2000, -38.818
1675.3000, -38.777
1675.4000, -38.742
1675.5000, -38.706
1675.6000, -38.680
1675.7000, -38.661
1675.8000, -38.653
1675.9000, -38.641
1676.0000, -38.638
1676.1000, -38.634
1676.2000, -38.636
1676.3000, -38.642
1676.4000, -38.644
1676.5000, -38.642
1676.6000, -38.648
1676.7000, -38.650
1676.8000, -38.654
1676.9000, -38.654
1677.0000, -38.660
1677.1000, -38.671
1677.2000, -38.689
1677.3000, -38.710
1677.4000, -38.734
1677.5000, -38.759
1677.6000, -38.793
1677.7000, -38.837
1677.8000, -38.887
1677.9000, -38.944
1678.0000, -39.006
1678.1000, -39.077
1678.2000, -39.150
1678.3000, -39.223
1678.4000, -39.292
1678.5000, -39.369
1678.6000, -39.445
1678.7000, -39.520
1678.8000, -39.596
1678.9000, -39.672
1679.0000, -39.742
1679.1000, -39.816
1679.2000, -39.888
1679.3000, -39.960
1679.4000, -40.045
1679.5000, -40.133
1679.6000, -40.216
1679.7000, -40.311
1679.8000, -40.402
1679.9000, -40.508
1680.0000, -40.621
1680.1000, -40.733
1680.2000, -40.856
1680.3000, -40.971
1680.4000, -41.091
1680.5000, -41.209
1680.6000, -41.331
1680.7000, -41.448
1680.8000, -41.558
1680.9000, -41.667
1681.0000, -41.753
1681.1000, -41.850
1681.2000, -41.931
1681.3000, -42.020
1681.4000, -42.091
1681.5000, -42.181
1681.6000, -42.245
1681.7000, -42.331
1681.8000, -42.410
1681.9000, -42.479
1682.0000, -42.552
1682.1000, -42.612
1682.2000, -42.709
1682.3000, -42.773
1682.4000, -42.827
1682.5000, -42.894
1682.6000, -42.959
1682.7000, -43.002
1682.8000, -43.027
1682.9000, -43.043
1683.0000, -43.042
1683.1000, -43.062
1683.2000, -43.044
1683.3000, -43.012
1683.4000, -42.977
1683.5000, -42.935
1683.6000, -42.902
1683.7000, -42.854
1683.8000, -42.802
1683.9000, -42.746
1684.0000, -42.708
1684.1000, -42.670
1684.2000, -42.628
1684.3000, -42.589
1684.4000, -42.557
1684.5000, -42.528
1684.6000, -42.494
1684.7000, -42.457
1684.8000, -42.410
1684.9000, -42.373
1685.0000, -42.329
1685.1000, -42.281
1685.2000, -42.220
1685.3000, -42.159
1685.4000, -42.089
1685.5000, -42.029
1685.6000, -41.961
1685.7000, -41.908
1685.8000, -41.844
1685.9000, -41.782
1686.0000, -41.734
1686.1000, -41.695
1686.2000, -41.652
1686.3000, -41.621
1686.4000, -41.613
1686.5000, -41.583
1686.6000, -41.575
1686.7000, -41.562
1686.8000, -41.554
1686.9000, -41.554
1687.0000, -41.546
1687.1000, -41.549
1687.2000, -41.546
1687.3000, -41.526
1687.4000, -41.525
1687.5000, -41.504
1687.6000, -41.506
1687.7000, -41.504
1687.8000, -41.491
1687.9000, -41.491
1688.0000, -41.476
1688.1000, -41.495
1688.2000, -41.505
1688.3000, -41.539
1688.4000, -41.561
1688.5000, -41.610
1688.6000, -41.646
1688.7000, -41.692
1688.8000, -41.748
1688.9000, -41.805
1689.0000, -41.862
1689.1000, -41.917
1689.2000, -41.997
1689.3000, -42.046
1689.4000, -42.120
1689.5000, -42.173
1689.6000, -42.224
1689.7000, -42.288
1689.8000, -42.339
1689.9000, -42.389
1690.0000, -42.460
1690.1000, -42.505
1690.2000, -42.570
1690.3000, -42.643
1690.4000, -42.715
1690.5000, -42.796
1690.6000, -42.879
1690.7000, -42.963
1690.8000, -43.047
1690.9000, -43.156
1691.0000, -43.257
1691.1000, -43.369
1691.2000, -43.487
1691.3000, -43.593
1691.4000, -43.720
1691.5000, -43.795
1691.6000, -43.885
1691.7000, -44.023
1691.8000, -44.108
1691.9000, -44.217
1692.0000, -44.268
1692.1000, -44.341
1692.2000, -44.402
1692.3000, -44.505
1692.4000, -44.562
1692.5000, -44.632
1692.6000, -44.705
1692.7000, -44.762
1692.8000, -44.823
1692.9000, -44.907
1693.0000, -45.006
1693.1000, -45.062
1693.2000, -45.160
1693.3000, -45.191
1693.4000, -45.302
1693.5000, -45.324
1693.6000, -45.389
1693.7000, -45.451
1693.8000, -45.497
1693.9000, -45.525
1694.0000, -45.519
1694.1000, -45.524
1694.2000, -45.546
1694.3000, -45.536
1694.4000, -45.515
1694.5000, -45.476
1694.6000, -45.466
1694.7000, -45.416
1694.8000, -45.401
1694.9000, -45.386
1695.0000, -45.337
1695.1000, -45.328
1695.2000, -45.311
1695.3000, -45.287
1695.4000, -45.272
1695.5000, -45.294
1695.6000, -45.232
1695.7000, -45.214
1695.8000, -45.220
1695.9000, -45.148
1696.0000, -45.107
1696.1000, -45.074
1696.2000, -45.028
1696.3000, -44.970
1696.4000, -44.897
1696.5000, -44.845
1696.6000, -44.792
1696.7000, -44.736
1696.8000, -44.674
1696.9000, -44.646
1697.0000, -44.593
1697.1000, -44.545
1697.2000, -44.531
1697.3000, -44.520
1697.4000, -44.476
1697.5000, -44.445
1697.6000, -44.426
1697.7000, -44.444
1697.8000, -44.413
1697.9000, -44.439
1698.0000, -44.401
1698.1000, -44.411
1698.2000, -44.419
1698.3000, -44.380
1698.4000, -44.375
1698.5000, -44.339
1698.6000, -44.335
1698.7000, -44.330
1698.8000, -44.329
1698.9000, -44.325
1699.0000, -44.294
1699.1000, -44.279
1699.2000, -44.285
1699.3000, -44.307
1699.4000, -44.337
1699.5000, -44.379
1699.6000, -44.379
1699.7000, -44.440
1699.8000, -44.476
1699.9000, -44.525
1700.0000, -44.605
1700.1000, -44.606
1700.2000, -44.637
1700.3000, -44.718
1700.4000, -44.779
1700.5000, -44.791
1700.6000, -44.820
1700.7000, -44.871
1700.8000, -44.906
1700.9000, -44.998
1701.0000, -45.020
1701.1000, -45.099
1701.2000, -45.092
1701.3000, -45.146
1701.4000, -45.203
1701.5000, -45.278
1701.6000, -45.354
1701.7000, -45.435
1701.8000, -45.481
1701.9000, -45.581
1702.0000, -45.661
1702.1000, -45.745
1702.2000, -45.878
1702.3000, -45.958
1702.4000, -46.076
1702.5000, -46.118
1702.6000, -46.201
1702.7000, -46.323
1702.8000, -46.364
1702.9000, -46.421
1703.0000, -46.501
1703.1000, -46.587
1703.2000, -46.637
1703.3000, -46.752
1703.4000, -46.750
1703.5000, -46.784
1703.6000, -46.893
1703.7000, -46.962
1703.8000, -46.959
1703.9000, -47.118
1704.0000, -47.171
1704.1000, -47.171
1704.2000, -47.338
1704.3000, -47.415
1704.4000, -47.416
1704.5000, -47.517
1704.6000, -47.550
1704.7000, -47.639
1704.8000, -47.667
1704.9000, -47.773
1705.0000, -47.736
1705.1000, -47.714
1705.2000, -47.715
1705.3000, -47.810
1705.4000, -47.784
1705.5000, -47.751
1705.6000, -47.725
1705.7000, -47.789
1705.8000, -47.722
1705.9000, -47.760
1706.0000, -47.731
1706.1000, -47.686
1706.2000, -47.773
1706.3000, -47.765
1706.4000, -47.758
1706.5000, -47.686
1706.6000, -47.724
1706.7000, -47.747
1706.8000, -47.667
1706.9000, -47.645
1707.0000, -47.654
1707.1000, -47.633
1707.2000, -47.601
1707.3000, -47.555
1707.4000, -47.477
1707.5000, -47.421
1707.6000, -47.349
1707.7000, -47.308
1707.8000, -47.299
1707.9000, -47.234
1708.0000, -47.221
1708.1000, -47.186
1708.2000, -47.162
1708.3000, -47.138
1708.4000, -47.084
1708.5000, -47.059
1708.6000, -47.181
1708.7000, -47.118
1708.8000, -47.071
1708.9000, -47.056
1709.0000, -47.102
1709.1000, -46.984
1709.2000, -47.069
1709.3000, -46.971
1709.4000, -47.026
1709.5000, -46.974
1709.6000, -46.914
1709.7000, -46.904
1709.8000, -46.825
1709.9000, -46.951
1710.0000, -46.850
1710.1000, -46.874
1710.2000, -46.918
1710.3000, -46.912
1710.4000, -46.864
1710.5000, -46.898
1710.6000, -46.909
1710.7000, -46.874
1710.8000, -46.954
1710.9000, -46.987
1711.0000, -47.007
1711.1000, -47.108
1711.2000, -47.152
1711.3000, -47.165
1711.4000, -47.193
1711.5000, -47.112
1711.6000, -47.155
1711.7000, -47.239
1711.8000, -47.246
1711.9000, -47.296
1712.0000, -47.336
1712.1000, -47.342
1712.2000, -47.473
1712.3000, -47.418
1712.4000, -47.558
1712.5000, -47.602
1712.6000, -47.658
1712.7000, -47.657
1712.8000, -47.737
1712.9000, -47.727
1713.0000, -47.954
1713.1000, -47.881
1713.2000, -47.964
1713.3000, -48.067
1713.4000, -48.076
1713.5000, -48.252
1713.6000, -48.318
1713.7000, -48.425
1713.8000, -48.485
1713.9000, -48.552
1714.0000, -48.594
1714.1000, -48.557
1714.2000, -48.711
1714.3000, -48.884
1714.4000, -48.790
1714.5000, -48.866
1714.6000, -49.012
1714.7000, -49.043
1714.8000, -49.138
1714.9000, -48.957
1715.0000, -49.190
1715.1000, -49.049
1715.2000, -49.339
1715.3000, -49.308
1715.4000, -49.461
1715.5000, -49.620
1715.6000, -49.708
1715.7000, -49.709
1715.8000, -49.669
1715.9000, -49.742
1716.0000, -49.865
1716.1000, -49.938
1716.2000, -49.995
1716.3000, -49.994
1716.4000, -50.162
1716.5000, -49.969
1716.6000, -50.005
1716.7000, -50.059
1716.8000, -49.967
1716.9000, -50.208
1717.0000, -50.211
1717.1000, -50.109
1717.2000, -50.039
1717.3000, -50.015
1717.4000, -50.168
1717.5000, -50.052
1717.6000, -50.168
1717.7000, -50.040
1717.8000, -49.971
1717.9000, -49.965
1718.0000, -50.151
1718.1000, -49.925
1718.2000, -50.219
1718.3000, -50.166
1718.4000, -50.180
1718.5000, -50.356
1718.6000, -49.832
1718.7000, -49.764
1718.8000, -49.725
1718.9000, -49.723
1719.0000, -49.686
1719.1000, -49.462
1719.2000, -49.885
1719.3000, -49.817
1719.4000, -50.048
1719.5000, -49.747
1719.6000, -49.650
1719.7000, -49.568
1719.8000, -49.860
1719.9000, -49.451
1720.0000, -49.485
1720.1000, -49.688
1720.2000, -49.645
1720.3000, -49.648
1720.4000, -49.562
1720.5000, -49.654
1720.6000, -49.550
1720.7000, -49.486
1720.8000, -49.570
1720.9000, -49.491
1721.0000, -49.368
1721.1000, -49.352
1721.2000, -49.403
1721.3000, -49.400
1721.4000, -49.408
1721.5000, -49.494
1721.6000, -49.495
1721.7000, -49.460
1721.8000, -49.432
1721.9000, -49.321
1722.0000, -49.543
1722.1000, -49.467
1722.2000, -49.469
1722.3000, -49.565
1722.4000, -49.623
1722.5000, -49.659
1722.6000, -49.612
1722.7000, -49.391
1722.8000, -49.801
1722.9000, -49.730
1723.0000, -49.812
1723.1000, -49.612
1723.2000, -49.614
1723.3000, -49.904
1723.4000, -49.751
1723.5000, -49.451
1723.6000, -49.695
1723.7000, -49.746
1723.8000, -50.085
1723.9000, -49.910
1724.0000, -49.771
1724.1000, -49.925
1724.2000, -50.301
1724.3000, -50.402
1724.4000, -50.430
1724.5000, -50.570
1724.6000, -50.405
1724.7000, -50.510
1724.8000, -50.503
1724.9000, -50.695
1725.0000, -50.719
1725.1000, -50.487
1725.2000, -51.301
1725.3000, -50.840
1725.4000, -50.715
1725.5000, -50.396
1725.6000, -50.972
1725.7000, -50.808
1725.8000, -50.778
1725.9000, -51.241
1726.0000, -50.847
1726.1000, -50.965
1726.2000, -51.550
1726.3000, -51.645
1726.4000, -51.232
1726.5000, -51.492
1726.6000, -52.006
1726.7000, -51.461
1726.8000, -51.558
1726.9000, -51.935
1727.0000, -51.628
1727.1000, -52.047
1727.2000, -51.744
1727.3000, -51.764
1727.4000, -52.272
1727.5000, -52.315
1727.6000, -52.005
1727.7000, -52.383
1727.8000, -52.344
1727.9000, -51.855
1728.0000, -51.880
1728.1000, -51.960
1728.2000, -52.170
1728.3000, -52.338
1728.4000, -52.428
1728.5000, -52.066
1728.6000, -52.246
1728.7000, -52.271
1728.8000, -52.582
1728.9000, -52.415
1729.0000, -52.386
1729.1000, -52.037
1729.2000, -52.408
1729.3000, -52.473
1729.4000, -52.752
1729.5000, -52.661
1729.6000, -52.639
1729.7000, -52.105
1729.8000, -52.172
1729.9000, -51.920
1730.0000, -51.867
1730.1000, -51.641
1730.2000, -52.438
1730.3000, -52.932
1730.4000, -51.744
1730.5000, -51.757
1730.6000, -52.123
1730.7000, -52.282
1730.8000, -51.904
1730.9000, -51.477
1731.0000, -51.811
1731.1000, -52.581
1731.2000, -51.644
1731.3000, -52.127
1731.4000, -51.607
1731.5000, -52.473
1731.6000, -52.541
1731.7000, -52.420
1731.8000, -52.034
1731.9000, -52.674
1732.0000, -52.348
1732.1000, -52.306
1732.2000, -51.974
1732.3000, -52.068
1732.4000, -51.479
1732.5000, -52.030
1732.6000, -51.694
1732.7000, -51.883
1732.8000, -52.217
1732.9000, -51.460
1733.0000, -51.686
1733.1000, -51.542
1733.2000, -51.508
1733.3000, -51.595
1733.4000, -51.797
1733.5000, -52.217
1733.6000, -52.078
1733.7000, -52.130
1733.8000, -52.166
1733.9000, -52.457
1734.0000, -51.791
1734.1000, -52.272
1734.2000, -52.404
1734.3000, -52.560
1734.4000, -51.740
1734.5000, -52.153
1734.6000, -51.526
1734.7000, -51.796
1734.8000, -51.621
1734.9000, -51.915
1735.0000, -51.920
1735.1000, -51.953
1735.2000, -52.374
1735.3000, -52.418
1735.4000, -52.560
1735.5000, -52.678
1735.6000, -51.789
1735.7000, -51.911
1735.8000, -52.545
1735.9000, -52.452
1736.0000, -52.764
1736.1000, -52.865
1736.2000, -52.442
1736.3000, -52.825
1736.4000, -52.459
1736.5000, -52.773
1736.6000, -53.804
1736.7000, -52.515
1736.8000, -52.752
1736.9000, -53.595
1737.0000, -53.376
1737.1000, -53.104
1737.2000, -53.577
1737.3000, -53.449
1737.4000, -52.105
1737.5000, -52.629
1737.6000, -53.695
1737.7000, -52.566
1737.8000, -53.166
1737.9000, -54.263
1738.0000, -53.980
1738.1000, -53.557
1738.2000, -53.387
1738.3000, -54.170
1738.4000, -52.319
1738.5000, -53.793
1738.6000, -53.137
1738.7000, -54.388
1738.8000, -54.088
1738.9000, -53.722
1739.0000, -55.031
1739.1000, -54.581
1739.2000, -53.926
1739.3000, -54.641
1739.4000, -54.227
1739.5000, -53.736
1739.6000, -53.713
1739.7000, -54.577
1739.8000, -53.653
1739.9000, -53.540
1740.0000, -55.114
1740.1000, -54.584
1740.2000, -54.835
1740.3000, -53.976
1740.4000, -54.837
1740.5000, -53.522
1740.6000, -53.865
1740.7000, -55.572
1740.8000, -55.805
1740.9000, -55.875
1741.0000, -54.781
1741.1000, -53.282
1741.2000, -57.188
1741.3000, -56.316
1741.4000, -54.977
1741.5000, -57.132
1741.6000, -55.603
1741.7000, -54.230
1741.8000, -53.906
1741.9000, -53.837
1742.0000, -55.142
1742.1000, -53.982
1742.2000, -53.674
1742.3000, -54.198
1742.4000, -54.653
1742.5000, -54.052
1742.6000, -55.933
1742.7000, -55.881
1742.8000, -53.641
1742.9000, -56.060
1743.0000, -54.870
1743.1000, -55.048
1743.2000, -56.509
1743.3000, -53.865
1743.4000, -54.355
1743.5000, -54.820
1743.6000, -55.028
1743.7000, -53.653
1743.8000, -53.820
1743.9000, -53.915
1744.0000, -54.207
1744.1000, -54.502
1744.2000, -54.757
1744.3000, -54.264
1744.4000, -54.114
1744.5000, -55.093
1744.6000, -53.756
1744.7000, -54.704
1744.8000, -57.757
1744.9000, -54.333
1745.0000, -56.342
1745.1000, -53.559
1745.2000, -53.314
1745.3000, -54.301
1745.4000, -55.080
1745.5000, -53.949
1745.6000, -54.935
1745.7000, -53.611
1745.8000, -54.193
1745.9000, -56.012
1746.0000, -54.708
1746.1000, -54.604
1746.2000, -53.834
1746.3000, -54.643
1746.4000, -54.103
1746.5000, -56.906
1746.6000, -55.535
1746.7000, -54.383
1746.8000, -54.037
1746.9000, -53.510
1747.0000, -52.863
1747.1000, -54.367
1747.2000, -55.139
1747.3000, -53.562
1747.4000, -54.915
1747.5000, -55.548
1747.6000, -54.624
1747.7000, -53.786
1747.8000, -54.759
1747.9000, -55.323
1748.0000, -55.871
1748.1000, -54.855
1748.2000, -53.086
1748.3000, -53.868
1748.4000, -54.691
1748.5000, -55.709
1748.6000, -56.319
1748.7000, -55.584
1748.8000, -55.353
1748.9000, -54.606
1749.0000, -56.305
1749.1000, -53.021
1749.2000, -54.459
1749.3000, -55.606
1749.4000, -55.508
1749.5000, -58.740
1749.6000, -54.490
1749.7000, -54.023
1749.8000, -56.625
1749.9000, -53.886
1750.0000, -54.867
