75ECSV 	
// AQ6375E OPTICAL SPECTRUM ANALYZER //
40
"CTRWL",1650.000000
"SPAN",1300.000000
"START WL",1000.000000
"STOP WL",2300.000000
"WLFREQ", 0
"REFL",-32.1
"LSCL",10.0
"RESLN",2.000
"CUSTOM RES",0
"AVG",   1
"SMPLAUTO",      0
"SMPL",       3251
"SMPLINTVL",0.4000
"NORMAL"
"SENS LEVEL",-67.0
"MEAS"
"LSUNT",0
"NMSKH","OFF"
"RESCOR",0
"SMOOTH",0
"MEASWL",1
"MODELNAME",AQ6375E
"NEBWCAL0",    0
"NEBWCAL1",    0
"NEBWCALWL",   0
"RESCAL0_0",   9977
"RESCAL0_1",      0
"RESCAL0_2",      0
"RESCAL1_0",   9977
"RESCAL1_1",      0
"RESCAL1_2",      0









"[TRACE DATA]"
1000.0000, -61.233
1000.4000, -64.117
1000.8000,-210.000
1001.2000, -69.059
1001.6000,-210.000
1002.0000, -61.964
1002.4000, -59.019
1002.8000, -73.953
1003.2000, -63.773
1003.6000, -61.678
1004.0000,-210.000
1004.4000, -63.795
1004.8000, -70.962
1005.2000,-210.000
1005.6000,-210.000
1006.0000, -61.465
1006.4000,-210.000
1006.8000, -60.440
1007.2000, -64.389
1007.6000,-210.000
1008.0000,-210.000
1008.4000, -85.190
1008.8000,-210.000
1009.2000, -67.915
1009.6000,-210.000
1010.0000,-210.000
1010.4000, -59.993
1010.8000, -63.041
1011.2000,-210.000
1011.6000,-210.000
1012.0000,-210.000
1012.4000,-210.000
1012.8000, -62.867
1013.2000, -64.375
1013.6000, -65.461
1014.0000, -70.313
1014.4000, -68.165
1014.8000, -71.494
1015.2000,-210.000
1015.6000, -61.002
1016.0000,-210.000
1016.4000, -60.865
1016.8000, -63.670
1017.2000, -62.743
1017.6000, -61.742
1018.0000, -65.113
1018.4000, -63.574
1018.8000, -62.248
1019.2000, -64.371
1019.6000, -63.730
1020.0000, -60.137
1020.4000,-210.000
1020.8000, -60.461
1021.2000,-210.000
1021.6000, -61.945
1022.0000, -64.784
1022.4000,-210.000
1022.8000, -68.443
1023.2000, -62.471
1023.6000, -60.904
1024.0000,-210.000
1024.4000, -68.157
1024.8000,-210.000
1025.2000,-210.000
1025.6000,-210.000
1026.0000,-210.000
1026.4000,-210.000
1026.8000, -68.848
1027.2000, -61.362
1027.6000,-210.000
1028.0000, -61.844
1028.4000,-210.000
1028.8000, -68.497
1029.2000,-210.000
1029.6000, -62.656
1030.0000, -68.984
1030.4000, -63.449
1030.8000,-210.000
1031.2000, -65.977
1031.6000,-210.000
1032.0000, -62.234
1032.4000, -67.516
1032.8000,-210.000
1033.2000,-210.000
1033.6000, -60.075
1034.0000,-210.000
1034.4000, -66.318
1034.8000, -59.723
1035.2000,-210.000
1035.6000, -65.235
1036.0000, -63.312
1036.4000, -63.031
1036.8000, -60.245
1037.2000,-210.000
1037.6000, -62.116
1038.0000, -67.117
1038.4000, -62.744
1038.8000, -63.453
1039.2000, -60.873
1039.6000,-210.000
1040.0000, -62.260
1040.4000, -63.634
1040.8000, -64.212
1041.2000, -63.488
1041.6000,-210.000
1042.0000, -77.105
1042.4000,-210.000
1042.8000, -65.590
1043.2000,-210.000
1043.6000, -69.644
1044.0000, -63.078
1044.4000, -62.313
1044.8000, -60.864
1045.2000, -63.805
1045.6000,-210.000
1046.0000, -60.253
1046.4000, -75.426
1046.8000, -63.299
1047.2000, -69.612
1047.6000,-210.000
1048.0000,-210.000
1048.4000, -68.726
1048.8000,-210.000
1049.2000,-210.000
1049.6000, -61.850
1050.0000, -69.484
1050.4000, -67.275
1050.8000, -85.828
1051.2000, -66.501
1051.6000, -62.047
1052.0000,-210.000
1052.4000, -58.553
1052.8000,-210.000
1053.2000,-210.000
1053.6000, -62.317
1054.0000, -65.950
1054.4000, -69.836
1054.8000, -62.233
1055.2000, -62.833
1055.6000,-210.000
1056.0000, -65.996
1056.4000, -67.604
1056.8000,-210.000
1057.2000,-210.000
1057.6000, -64.919
1058.0000,-210.000
1058.4000, -71.571
1058.8000,-210.000
1059.2000, -69.235
1059.6000,-210.000
1060.0000, -61.771
1060.4000, -65.520
1060.8000,-210.000
1061.2000, -62.316
1061.6000,-210.000
1062.0000, -63.942
1062.4000,-210.000
1062.8000, -62.097
1063.2000,-210.000
1063.6000,-210.000
1064.0000, -72.695
1064.4000,-210.000
1064.8000, -66.798
1065.2000, -64.820
1065.6000, -59.338
1066.0000,-210.000
1066.4000,-210.000
1066.8000, -74.605
1067.2000,-210.000
1067.6000,-210.000
1068.0000,-210.000
1068.4000, -65.309
1068.8000,-210.000
1069.2000,-210.000
1069.6000, -64.114
1070.0000, -65.006
1070.4000, -64.200
1070.8000,-210.000
1071.2000, -63.365
1071.6000, -75.318
1072.0000, -66.680
1072.4000, -60.006
1072.8000, -66.896
1073.2000,-210.000
1073.6000, -65.590
1074.0000, -61.642
1074.4000,-210.000
1074.8000,-210.000
1075.2000, -59.586
1075.6000,-210.000
1076.0000, -67.879
1076.4000,-210.000
1076.8000,-210.000
1077.2000, -64.253
1077.6000, -68.786
1078.0000, -70.697
1078.4000, -71.914
1078.8000, -65.380
1079.2000,-210.000
1079.6000,-210.000
1080.0000, -71.194
1080.4000, -60.363
1080.8000, -63.302
1081.2000, -66.475
1081.6000, -65.740
1082.0000,-210.000
1082.4000, -66.513
1082.8000,-210.000
1083.2000, -64.117
1083.6000,-210.000
1084.0000, -65.772
1084.4000, -60.146
1084.8000, -67.343
1085.2000,-210.000
1085.6000, -59.987
1086.0000, -62.412
1086.4000, -68.531
1086.8000,-210.000
1087.2000, -60.774
1087.6000, -73.559
1088.0000,-210.000
1088.4000, -65.058
1088.8000,-210.000
1089.2000, -61.758
1089.6000,-210.000
1090.0000,-210.000
1090.4000,-210.000
1090.8000,-210.000
1091.2000, -67.387
1091.6000, -68.559
1092.0000, -64.988
1092.4000, -66.910
1092.8000, -69.520
1093.2000, -66.444
1093.6000, -66.173
1094.0000,-210.000
1094.4000, -65.977
1094.8000, -60.612
1095.2000, -61.769
1095.6000, -64.047
1096.0000,-210.000
1096.4000, -67.801
1096.8000, -64.581
1097.2000, -62.425
1097.6000, -65.451
1098.0000,-210.000
1098.4000, -64.349
1098.8000,-210.000
1099.2000, -64.219
1099.6000, -60.022
1100.0000, -62.309
1100.4000, -67.573
1100.8000,-210.000
1101.2000,-210.000
1101.6000, -60.504
1102.0000,-210.000
1102.4000, -64.646
1102.8000,-210.000
1103.2000, -72.776
1103.6000, -66.672
1104.0000, -66.116
1104.4000, -66.171
1104.8000, -60.813
1105.2000,-210.000
1105.6000, -65.742
1106.0000, -68.323
1106.4000, -72.494
1106.8000, -69.636
1107.2000,-210.000
1107.6000, -71.724
1108.0000,-210.000
1108.4000, -67.808
1108.8000, -60.453
1109.2000, -66.756
1109.6000, -63.883
1110.0000, -62.903
1110.4000, -67.409
1110.8000,-210.000
1111.2000, -68.834
1111.6000,-210.000
1112.0000,-210.000
1112.4000, -69.285
1112.8000, -66.670
1113.2000,-210.000
1113.6000, -59.829
1114.0000, -60.999
1114.4000,-210.000
1114.8000,-210.000
1115.2000,-210.000
1115.6000, -61.336
1116.0000, -62.534
1116.4000, -61.440
1116.8000, -63.036
1117.2000, -80.147
1117.6000,-210.000
1118.0000, -74.892
1118.4000, -67.476
1118.8000, -77.813
1119.2000, -65.708
1119.6000,-210.000
1120.0000,-210.000
1120.4000, -64.551
1120.8000, -73.577
1121.2000, -67.622
1121.6000,-210.000
1122.0000,-210.000
1122.4000,-210.000
1122.8000, -64.374
1123.2000,-210.000
1123.6000,-210.000
1124.0000, -67.748
1124.4000,-210.000
1124.8000, -61.459
1125.2000,-210.000
1125.6000, -75.518
1126.0000,-210.000
1126.4000, -61.470
1126.8000,-210.000
1127.2000,-210.000
1127.6000, -68.956
1128.0000, -67.175
1128.4000, -74.552
1128.8000,-210.000
1129.2000, -71.258
1129.6000, -66.321
1130.0000, -63.811
1130.4000,-210.000
1130.8000, -60.541
1131.2000, -65.039
1131.6000,-210.000
1132.0000, -64.151
1132.4000, -63.040
1132.8000, -69.929
1133.2000, -67.359
1133.6000, -69.051
1134.0000, -64.767
1134.4000,-210.000
1134.8000, -70.087
1135.2000, -65.234
1135.6000,-210.000
1136.0000, -66.057
1136.4000, -64.973
1136.8000,-210.000
1137.2000, -71.329
1137.6000, -61.063
1138.0000, -79.807
1138.4000,-210.000
1138.8000, -66.339
1139.2000, -68.621
1139.6000, -64.066
1140.0000, -78.754
1140.4000, -63.657
1140.8000, -62.152
1141.2000, -67.212
1141.6000,-210.000
1142.0000,-210.000
1142.4000,-210.000
1142.8000, -69.654
1143.2000, -72.100
1143.6000, -65.135
1144.0000,-210.000
1144.4000, -69.485
1144.8000,-210.000
1145.2000,-210.000
1145.6000, -67.563
1146.0000, -70.522
1146.4000, -68.753
1146.8000,-210.000
1147.2000, -65.332
1147.6000, -62.099
1148.0000, -67.752
1148.4000, -64.134
1148.8000, -67.348
1149.2000, -76.624
1149.6000, -69.395
1150.0000,-210.000
1150.4000,-210.000
1150.8000, -62.008
1151.2000, -71.524
1151.6000,-210.000
1152.0000, -69.166
1152.4000,-210.000
1152.8000,-210.000
1153.2000, -75.927
1153.6000, -65.311
1154.0000, -64.452
1154.4000, -65.668
1154.8000, -65.153
1155.2000,-210.000
1155.6000,-210.000
1156.0000, -73.316
1156.4000,-210.000
1156.8000, -63.695
1157.2000,-210.000
1157.6000, -72.413
1158.0000,-210.000
1158.4000, -66.867
1158.8000,-210.000
1159.2000,-210.000
1159.6000, -68.543
1160.0000, -69.692
1160.4000,-210.000
1160.8000, -65.654
1161.2000,-210.000
1161.6000, -66.639
1162.0000,-210.000
1162.4000,-210.000
1162.8000, -66.624
1163.2000, -68.346
1163.6000,-210.000
1164.0000, -74.439
1164.4000,-210.000
1164.8000, -65.277
1165.2000, -68.415
1165.6000, -63.953
1166.0000,-210.000
1166.4000,-210.000
1166.8000, -68.921
1167.2000,-210.000
1167.6000, -64.838
1168.0000,-210.000
1168.4000, -66.081
1168.8000, -65.483
1169.2000,-210.000
1169.6000,-210.000
1170.0000,-210.000
1170.4000, -78.014
1170.8000, -94.054
1171.2000,-210.000
1171.6000,-210.000
1172.0000, -65.412
1172.4000, -65.981
1172.8000, -69.537
1173.2000,-210.000
1173.6000,-210.000
1174.0000, -72.729
1174.4000,-210.000
1174.8000, -63.858
1175.2000, -68.606
1175.6000, -63.588
1176.0000, -65.710
1176.4000,-210.000
1176.8000, -66.408
1177.2000, -65.983
1177.6000, -66.841
1178.0000,-210.000
1178.4000, -75.495
1178.8000,-210.000
1179.2000, -64.168
1179.6000, -73.957
1180.0000, -67.137
1180.4000, -72.735
1180.8000, -74.554
1181.2000, -62.908
1181.6000, -64.100
1182.0000,-210.000
1182.4000,-210.000
1182.8000,-210.000
1183.2000,-210.000
1183.6000, -69.592
1184.0000,-210.000
1184.4000, -62.840
1184.8000, -66.931
1185.2000, -67.267
1185.6000, -68.227
1186.0000,-210.000
1186.4000,-210.000
1186.8000,-210.000
1187.2000, -70.044
1187.6000, -63.369
1188.0000, -63.746
1188.4000, -69.171
1188.8000, -62.330
1189.2000, -74.937
1189.6000,-210.000
1190.0000, -72.242
1190.4000, -64.463
1190.8000, -67.851
1191.2000, -64.689
1191.6000,-210.000
1192.0000,-210.000
1192.4000,-210.000
1192.8000, -71.552
1193.2000, -66.435
1193.6000,-210.000
1194.0000, -65.697
1194.4000,-210.000
1194.8000, -69.943
1195.2000,-210.000
1195.6000, -78.257
1196.0000, -67.176
1196.4000, -72.763
1196.8000,-210.000
1197.2000, -70.366
1197.6000, -65.274
1198.0000, -71.668
1198.4000, -64.146
1198.8000,-210.000
1199.2000, -70.371
1199.6000, -65.793
1200.0000, -65.933
1200.4000, -69.309
1200.8000,-210.000
1201.2000, -65.800
1201.6000, -68.270
1202.0000, -66.442
1202.4000, -69.798
1202.8000,-210.000
1203.2000, -70.023
1203.6000,-210.000
1204.0000, -83.109
1204.4000, -71.767
1204.8000, -65.635
1205.2000,-210.000
1205.6000, -71.160
1206.0000,-210.000
1206.4000, -68.883
1206.8000, -65.501
1207.2000,-210.000
1207.6000,-210.000
1208.0000, -65.582
1208.4000, -71.909
1208.8000, -73.339
1209.2000, -65.494
1209.6000, -70.290
1210.0000, -67.008
1210.4000, -65.393
1210.8000, -71.534
1211.2000,-210.000
1211.6000, -74.778
1212.0000,-210.000
1212.4000, -71.333
1212.8000, -66.492
1213.2000,-210.000
1213.6000,-210.000
1214.0000,-210.000
1214.4000, -67.094
1214.8000,-210.000
1215.2000, -64.642
1215.6000, -74.908
1216.0000,-210.000
1216.4000, -65.385
1216.8000,-210.000
1217.2000,-210.000
1217.6000,-210.000
1218.0000, -72.462
1218.4000,-210.000
1218.8000,-210.000
1219.2000,-210.000
1219.6000, -63.283
1220.0000, -66.732
1220.4000, -69.016
1220.8000,-210.000
1221.2000, -73.417
1221.6000, -70.119
1222.0000,-210.000
1222.4000, -72.318
1222.8000,-210.000
1223.2000,-210.000
1223.6000, -68.125
1224.0000, -66.713
1224.4000, -66.150
1224.8000, -65.028
1225.2000,-210.000
1225.6000, -69.363
1226.0000,-210.000
1226.4000, -67.544
1226.8000,-210.000
1227.2000, -77.288
1227.6000, -76.382
1228.0000, -69.202
1228.4000, -67.851
1228.8000, -72.561
1229.2000,-210.000
1229.6000, -74.584
1230.0000, -70.789
1230.4000,-210.000
1230.8000, -64.332
1231.2000,-210.000
1231.6000, -70.829
1232.0000,-210.000
1232.4000, -64.594
1232.8000, -74.466
1233.2000, -65.045
1233.6000,-210.000
1234.0000, -68.151
1234.4000, -69.142
1234.8000, -69.498
1235.2000,-210.000
1235.6000, -65.517
1236.0000, -63.918
1236.4000,-210.000
1236.8000,-210.000
1237.2000, -71.469
1237.6000, -66.404
1238.0000, -70.579
1238.4000,-210.000
1238.8000, -64.800
1239.2000,-210.000
1239.6000, -67.009
1240.0000,-210.000
1240.4000, -65.021
1240.8000, -71.316
1241.2000,-210.000
1241.6000, -67.163
1242.0000,-210.000
1242.4000, -79.010
1242.8000,-210.000
1243.2000, -67.372
1243.6000, -67.780
1244.0000,-210.000
1244.4000, -63.511
1244.8000, -66.334
1245.2000,-210.000
1245.6000, -67.229
1246.0000,-210.000
1246.4000, -67.568
1246.8000, -66.345
1247.2000, -63.206
1247.6000,-210.000
1248.0000, -69.610
1248.4000, -69.886
1248.8000, -73.766
1249.2000, -71.178
1249.6000, -72.095
1250.0000, -72.128
1250.4000, -64.806
1250.8000, -72.200
1251.2000, -68.857
1251.6000, -82.048
1252.0000,-210.000
1252.4000, -68.491
1252.8000,-210.000
1253.2000, -65.253
1253.6000, -67.511
1254.0000, -87.024
1254.4000, -71.529
1254.8000, -71.170
1255.2000, -65.028
1255.6000, -66.173
1256.0000, -64.461
1256.4000,-210.000
1256.8000,-210.000
1257.2000, -66.019
1257.6000, -67.759
1258.0000, -68.676
1258.4000, -63.560
1258.8000,-210.000
1259.2000,-210.000
1259.6000, -68.467
1260.0000, -68.318
1260.4000,-210.000
1260.8000, -64.554
1261.2000, -72.129
1261.6000,-210.000
1262.0000, -66.831
1262.4000,-210.000
1262.8000,-210.000
1263.2000, -69.825
1263.6000,-210.000
1264.0000, -68.775
1264.4000,-210.000
1264.8000, -65.967
1265.2000,-210.000
1265.6000, -63.844
1266.0000,-210.000
1266.4000, -70.021
1266.8000, -66.071
1267.2000,-210.000
1267.6000, -78.516
1268.0000, -72.818
1268.4000, -71.330
1268.8000, -67.105
1269.2000, -67.147
1269.6000, -71.804
1270.0000, -69.357
1270.4000,-210.000
1270.8000, -72.590
1271.2000, -71.950
1271.6000,-210.000
1272.0000, -66.148
1272.4000,-210.000
1272.8000, -68.739
1273.2000,-210.000
1273.6000, -73.288
1274.0000, -66.495
1274.4000,-210.000
1274.8000, -69.761
1275.2000,-210.000
1275.6000, -77.146
1276.0000,-210.000
1276.4000,-210.000
1276.8000, -75.678
1277.2000, -81.574
1277.6000, -84.141
1278.0000, -69.536
1278.4000, -71.867
1278.8000, -65.490
1279.2000, -74.762
1279.6000,-210.000
1280.0000, -74.640
1280.4000, -65.835
1280.8000,-210.000
1281.2000,-210.000
1281.6000,-210.000
1282.0000,-210.000
1282.4000, -74.294
1282.8000, -70.307
1283.2000,-210.000
1283.6000, -67.672
1284.0000, -81.298
1284.4000,-210.000
1284.8000, -76.965
1285.2000, -66.891
1285.6000,-210.000
1286.0000, -67.279
1286.4000, -73.451
1286.8000,-210.000
1287.2000,-210.000
1287.6000, -68.854
1288.0000,-210.000
1288.4000,-210.000
1288.8000, -74.547
1289.2000,-210.000
1289.6000, -65.906
1290.0000,-210.000
1290.4000, -71.245
1290.8000, -83.348
1291.2000,-210.000
1291.6000, -68.625
1292.0000, -71.756
1292.4000, -70.195
1292.8000, -67.866
1293.2000,-210.000
1293.6000, -73.092
1294.0000, -67.180
1294.4000, -69.287
1294.8000,-210.000
1295.2000, -68.445
1295.6000,-210.000
1296.0000,-210.000
1296.4000, -77.627
1296.8000, -75.032
1297.2000,-210.000
1297.6000, -70.682
1298.0000,-210.000
1298.4000,-210.000
1298.8000, -71.249
1299.2000,-210.000
1299.6000, -71.128
1300.0000, -70.293
1300.4000, -76.381
1300.8000, -65.834
1301.2000,-210.000
1301.6000, -70.614
1302.0000, -69.174
1302.4000, -70.913
1302.8000,-210.000
1303.2000, -67.732
1303.6000,-210.000
1304.0000,-210.000
1304.4000, -71.262
1304.8000,-210.000
1305.2000,-210.000
1305.6000, -66.594
1306.0000,-210.000
1306.4000, -66.647
1306.8000,-210.000
1307.2000, -67.710
1307.6000,-210.000
1308.0000,-210.000
1308.4000,-210.000
1308.8000,-210.000
1309.2000, -70.109
1309.6000, -66.202
1310.0000,-210.000
1310.4000, -75.096
1310.8000,-210.000
1311.2000, -64.455
1311.6000, -66.401
1312.0000, -80.549
1312.4000, -71.413
1312.8000, -81.868
1313.2000, -87.460
1313.6000, -70.463
1314.0000, -78.381
1314.4000, -97.903
1314.8000, -71.124
1315.2000, -67.947
1315.6000, -73.781
1316.0000,-210.000
1316.4000, -70.343
1316.8000, -70.231
1317.2000, -80.058
1317.6000, -73.151
1318.0000, -70.360
1318.4000,-210.000
1318.8000, -67.585
1319.2000, -79.777
1319.6000, -82.729
1320.0000, -69.046
1320.4000, -68.825
1320.8000,-210.000
1321.2000,-210.000
1321.6000,-210.000
1322.0000, -69.876
1322.4000, -69.915
1322.8000, -68.511
1323.2000, -72.084
1323.6000, -68.590
1324.0000, -74.368
1324.4000, -71.698
1324.8000,-210.000
1325.2000, -71.293
1325.6000, -71.966
1326.0000,-210.000
1326.4000, -72.703
1326.8000,-210.000
1327.2000,-210.000
1327.6000, -77.219
1328.0000, -81.712
1328.4000, -73.802
1328.8000, -67.690
1329.2000, -69.478
1329.6000, -87.940
1330.0000, -67.869
1330.4000,-210.000
1330.8000,-210.000
1331.2000, -68.145
1331.6000,-210.000
1332.0000, -71.632
1332.4000,-210.000
1332.8000, -65.630
1333.2000,-210.000
1333.6000,-210.000
1334.0000,-210.000
1334.4000,-210.000
1334.8000,-210.000
1335.2000,-210.000
1335.6000,-210.000
1336.0000, -70.031
1336.4000, -71.621
1336.8000, -78.561
1337.2000, -70.082
1337.6000,-210.000
1338.0000, -66.705
1338.4000, -69.799
1338.8000,-210.000
1339.2000,-210.000
1339.6000, -68.589
1340.0000, -74.137
1340.4000,-210.000
1340.8000, -66.057
1341.2000,-210.000
1341.6000, -73.237
1342.0000, -70.925
1342.4000, -75.180
1342.8000, -77.269
1343.2000, -68.646
1343.6000, -80.681
1344.0000, -72.885
1344.4000, -67.517
1344.8000,-210.000
1345.2000, -76.688
1345.6000,-210.000
1346.0000, -69.022
1346.4000, -72.025
1346.8000,-210.000
1347.2000,-210.000
1347.6000,-210.000
1348.0000,-210.000
1348.4000, -73.328
1348.8000, -73.621
1349.2000,-210.000
1349.6000, -68.407
1350.0000, -70.963
1350.4000, -70.207
1350.8000,-210.000
1351.2000, -69.462
1351.6000, -69.045
1352.0000,-210.000
1352.4000, -70.769
1352.8000, -70.671
1353.2000,-210.000
1353.6000,-210.000
1354.0000, -72.049
1354.4000, -71.934
1354.8000,-210.000
1355.2000,-210.000
1355.6000,-210.000
1356.0000, -77.599
1356.4000, -70.934
1356.8000,-210.000
1357.2000, -68.441
1357.6000, -72.993
1358.0000, -69.561
1358.4000,-210.000
1358.8000, -74.474
1359.2000, -67.731
1359.6000, -74.665
1360.0000,-210.000
1360.4000, -66.387
1360.8000, -74.344
1361.2000, -91.740
1361.6000, -73.129
1362.0000,-210.000
1362.4000, -73.998
1362.8000,-210.000
1363.2000, -74.069
1363.6000,-210.000
1364.0000, -68.318
1364.4000, -66.833
1364.8000, -66.542
1365.2000,-210.000
1365.6000, -70.664
1366.0000, -64.466
1366.4000,-210.000
1366.8000,-210.000
1367.2000,-210.000
1367.6000, -67.940
1368.0000,-210.000
1368.4000,-210.000
1368.8000, -75.319
1369.2000,-210.000
1369.6000, -75.029
1370.0000,-210.000
1370.4000,-210.000
1370.8000,-210.000
1371.2000, -70.817
1371.6000, -68.034
1372.0000, -76.949
1372.4000, -66.818
1372.8000,-210.000
1373.2000, -69.119
1373.6000, -69.699
1374.0000, -64.890
1374.4000, -71.447
1374.8000, -69.773
1375.2000, -71.550
1375.6000, -68.325
1376.0000, -77.412
1376.4000,-210.000
1376.8000, -72.289
1377.2000,-210.000
1377.6000, -70.437
1378.0000,-210.000
1378.4000, -71.101
1378.8000, -70.678
1379.2000,-210.000
1379.6000, -68.958
1380.0000, -74.984
1380.4000,-210.000
1380.8000, -76.511
1381.2000, -71.964
1381.6000, -70.636
1382.0000,-210.000
1382.4000, -70.718
1382.8000, -83.951
1383.2000,-210.000
1383.6000, -69.256
1384.0000,-210.000
1384.4000, -76.602
1384.8000, -74.047
1385.2000,-210.000
1385.6000,-210.000
1386.0000, -69.697
1386.4000, -72.241
1386.8000,-210.000
1387.2000, -70.343
1387.6000, -67.422
1388.0000,-210.000
1388.4000,-210.000
1388.8000, -69.687
1389.2000, -80.287
1389.6000, -70.045
1390.0000, -67.227
1390.4000,-210.000
1390.8000, -70.191
1391.2000, -70.105
1391.6000,-210.000
1392.0000, -76.019
1392.4000,-210.000
1392.8000, -68.046
1393.2000, -69.656
1393.6000, -80.762
1394.0000, -69.981
1394.4000, -69.070
1394.8000, -65.731
1395.2000, -67.612
1395.6000, -67.758
1396.0000, -68.676
1396.4000, -75.517
1396.8000, -68.365
1397.2000, -82.444
1397.6000, -82.345
1398.0000, -70.056
1398.4000, -81.761
1398.8000, -70.767
1399.2000, -70.004
1399.6000, -74.111
1400.0000,-210.000
1400.4000, -70.289
1400.8000, -70.702
1401.2000, -67.557
1401.6000,-210.000
1402.0000, -86.725
1402.4000, -67.732
1402.8000, -71.662
1403.2000, -71.665
1403.6000, -72.372
1404.0000, -66.951
1404.4000, -69.569
1404.8000, -79.024
1405.2000, -79.844
1405.6000, -72.164
1406.0000, -67.706
1406.4000, -70.503
1406.8000, -66.808
1407.2000, -69.236
1407.6000, -68.545
1408.0000,-210.000
1408.4000, -65.947
1408.8000, -68.884
1409.2000, -66.819
1409.6000, -70.271
1410.0000, -69.036
1410.4000, -69.920
1410.8000, -65.773
1411.2000, -65.958
1411.6000, -66.907
1412.0000, -68.811
1412.4000, -66.673
1412.8000, -70.230
1413.2000, -68.409
1413.6000, -69.247
1414.0000, -66.432
1414.4000, -66.906
1414.8000, -65.224
1415.2000, -70.541
1415.6000, -65.887
1416.0000, -66.305
1416.4000, -67.435
1416.8000, -67.076
1417.2000, -64.696
1417.6000, -65.721
1418.0000, -67.482
1418.4000, -66.120
1418.8000, -66.441
1419.2000, -68.416
1419.6000, -68.786
1420.0000, -65.453
1420.4000, -65.414
1420.8000, -65.301
1421.2000, -65.289
1421.6000, -64.273
1422.0000, -64.218
1422.4000, -64.777
1422.8000, -65.258
1423.2000, -66.601
1423.6000, -66.235
1424.0000, -64.478
1424.4000, -63.402
1424.8000, -62.988
1425.2000, -63.418
1425.6000, -63.712
1426.0000, -64.505
1426.4000, -64.623
1426.8000, -63.258
1427.2000, -64.028
1427.6000, -62.976
1428.0000, -62.731
1428.4000, -62.154
1428.8000, -62.606
1429.2000, -62.602
1429.6000, -62.708
1430.0000, -61.724
1430.4000, -61.933
1430.8000, -63.075
1431.2000, -61.802
1431.6000, -61.698
1432.0000, -61.026
1432.4000, -62.535
1432.8000, -61.168
1433.2000, -61.037
1433.6000, -61.546
1434.0000, -61.346
1434.4000, -60.636
1434.8000, -60.747
1435.2000, -60.613
1435.6000, -60.538
1436.0000, -60.500
1436.4000, -59.998
1436.8000, -61.483
1437.2000, -59.349
1437.6000, -59.631
1438.0000, -59.614
1438.4000, -59.612
1438.8000, -59.816
1439.2000, -59.242
1439.6000, -59.480
1440.0000, -59.245
1440.4000, -59.198
1440.8000, -59.051
1441.2000, -58.705
1441.6000, -58.561
1442.0000, -58.332
1442.4000, -58.741
1442.8000, -57.973
1443.2000, -58.137
1443.6000, -57.996
1444.0000, -57.896
1444.4000, -57.888
1444.8000, -57.851
1445.2000, -57.316
1445.6000, -57.464
1446.0000, -57.351
1446.4000, -57.308
1446.8000, -57.155
1447.2000, -57.234
1447.6000, -57.317
1448.0000, -56.922
1448.4000, -56.978
1448.8000, -56.563
1449.2000, -56.757
1449.6000, -56.739
1450.0000, -56.518
1450.4000, -56.725
1450.8000, -56.352
1451.2000, -56.168
1451.6000, -56.234
1452.0000, -56.172
1452.4000, -56.048
1452.8000, -55.727
1453.2000, -55.988
1453.6000, -55.637
1454.0000, -55.533
1454.4000, -55.445
1454.8000, -55.561
1455.2000, -55.373
1455.6000, -55.141
1456.0000, -55.241
1456.4000, -55.165
1456.8000, -55.095
1457.2000, -55.049
1457.6000, -54.786
1458.0000, -54.599
1458.4000, -54.478
1458.8000, -54.479
1459.2000, -54.291
1459.6000, -54.412
1460.0000, -54.157
1460.4000, -53.973
1460.8000, -54.002
1461.2000, -53.900
1461.6000, -53.725
1462.0000, -53.511
1462.4000, -53.455
1462.8000, -53.327
1463.2000, -53.212
1463.6000, -53.120
1464.0000, -52.936
1464.4000, -52.888
1464.8000, -52.761
1465.2000, -52.622
1465.6000, -52.585
1466.0000, -52.469
1466.4000, -52.446
1466.8000, -52.289
1467.2000, -52.257
1467.6000, -52.111
1468.0000, -52.028
1468.4000, -51.959
1468.8000, -51.752
1469.2000, -51.717
1469.6000, -51.678
1470.0000, -51.532
1470.4000, -51.481
1470.8000, -51.288
1471.2000, -51.322
1471.6000, -51.175
1472.0000, -51.050
1472.4000, -50.981
1472.8000, -50.892
1473.2000, -50.746
1473.6000, -50.648
1474.0000, -50.541
1474.4000, -50.481
1474.8000, -50.377
1475.2000, -50.325
1475.6000, -50.151
1476.0000, -50.026
1476.4000, -49.975
1476.8000, -49.821
1477.2000, -49.700
1477.6000, -49.573
1478.0000, -49.493
1478.4000, -49.316
1478.8000, -49.185
1479.2000, -49.058
1479.6000, -48.877
1480.0000, -48.832
1480.4000, -48.684
1480.8000, -48.571
1481.2000, -48.396
1481.6000, -48.252
1482.0000, -48.105
1482.4000, -47.994
1482.8000, -47.810
1483.2000, -47.678
1483.6000, -47.528
1484.0000, -47.413
1484.4000, -47.270
1484.8000, -47.101
1485.2000, -46.977
1485.6000, -46.841
1486.0000, -46.728
1486.4000, -46.587
1486.8000, -46.451
1487.2000, -46.305
1487.6000, -46.170
1488.0000, -46.032
1488.4000, -45.901
1488.8000, -45.782
1489.2000, -45.651
1489.6000, -45.531
1490.0000, -45.406
1490.4000, -45.289
1490.8000, -45.157
1491.2000, -45.047
1491.6000, -44.960
1492.0000, -44.853
1492.4000, -44.743
1492.8000, -44.635
1493.2000, -44.556
1493.6000, -44.438
1494.0000, -44.353
1494.4000, -44.260
1494.8000, -44.168
1495.2000, -44.092
1495.6000, -44.000
1496.0000, -43.906
1496.4000, -43.829
1496.8000, -43.741
1497.2000, -43.645
1497.6000, -43.539
1498.0000, -43.458
1498.4000, -43.382
1498.8000, -43.287
1499.2000, -43.184
1499.6000, -43.085
1500.0000, -42.987
1500.4000, -42.899
1500.8000, -42.793
1501.2000, -42.685
1501.6000, -42.588
1502.0000, -42.500
1502.4000, -42.407
1502.8000, -42.309
1503.2000, -42.211
1503.6000, -42.118
1504.0000, -42.033
1504.4000, -41.933
1504.8000, -41.836
1505.2000, -41.739
1505.6000, -41.650
1506.0000, -41.549
1506.4000, -41.455
1506.8000, -41.348
1507.2000, -41.231
1507.6000, -41.112
1508.0000, -40.994
1508.4000, -40.851
1508.8000, -40.718
1509.2000, -40.564
1509.6000, -40.397
1510.0000, -40.231
1510.4000, -40.039
1510.8000, -39.845
1511.2000, -39.629
1511.6000, -39.427
1512.0000, -39.201
1512.4000, -38.973
1512.8000, -38.735
1513.2000, -38.494
1513.6000, -38.249
1514.0000, -38.001
1514.4000, -37.753
1514.8000, -37.511
1515.2000, -37.262
1515.6000, -37.013
1516.0000, -36.775
1516.4000, -36.546
1516.8000, -36.315
1517.2000, -36.095
1517.6000, -35.877
1518.0000, -35.672
1518.4000, -35.470
1518.8000, -35.275
1519.2000, -35.086
1519.6000, -34.909
1520.0000, -34.735
1520.4000, -34.565
1520.8000, -34.404
1521.2000, -34.243
1521.6000, -34.082
1522.0000, -33.928
1522.4000, -33.779
1522.8000, -33.632
1523.2000, -33.494
1523.6000, -33.359
1524.0000, -33.237
1524.4000, -33.121
1524.8000, -33.012
1525.2000, -32.913
1525.6000, -32.828
1526.0000, -32.749
1526.4000, -32.677
1526.8000, -32.614
1527.2000, -32.559
1527.6000, -32.511
1528.0000, -32.467
1528.4000, -32.434
1528.8000, -32.405
1529.2000, -32.388
1529.6000, -32.379
1530.0000, -32.385
1530.4000, -32.405
1530.8000, -32.447
1531.2000, -32.505
1531.6000, -32.581
1532.0000, -32.676
1532.4000, -32.786
1532.8000, -32.916
1533.2000, -33.067
1533.6000, -33.248
1534.0000, -33.459
1534.4000, -33.696
1534.8000, -33.966
1535.2000, -34.262
1535.6000, -34.586
1536.0000, -34.929
1536.4000, -35.291
1536.8000, -35.679
1537.2000, -36.084
1537.6000, -36.515
1538.0000, -36.961
1538.4000, -37.422
1538.8000, -37.904
1539.2000, -38.400
1539.6000, -38.934
1540.0000, -39.491
1540.4000, -40.067
1540.8000, -40.668
1541.2000, -41.272
1541.6000, -41.872
1542.0000, -42.437
1542.4000, -42.936
1542.8000, -43.343
1543.2000, -43.644
1543.6000, -43.774
1544.0000, -43.745
1544.4000, -43.547
1544.8000, -43.226
1545.2000, -42.819
1545.6000, -42.335
1546.0000, -41.823
1546.4000, -41.303
1546.8000, -40.793
1547.2000, -40.289
1547.6000, -39.797
1548.0000, -39.343
1548.4000, -38.922
1548.8000, -38.536
1549.2000, -38.175
1549.6000, -37.848
1550.0000, -37.555
1550.4000, -37.306
1550.8000, -37.087
1551.2000, -36.911
1551.6000, -36.771
1552.0000, -36.674
1552.4000, -36.612
1552.8000, -36.582
1553.2000, -36.589
1553.6000, -36.622
1554.0000, -36.697
1554.4000, -36.807
1554.8000, -36.952
1555.2000, -37.131
1555.6000, -37.339
1556.0000, -37.570
1556.4000, -37.797
1556.8000, -38.016
1557.2000, -38.235
1557.6000, -38.439
1558.0000, -38.636
1558.4000, -38.812
1558.8000, -38.976
1559.2000, -39.114
1559.6000, -39.220
1560.0000, -39.283
1560.4000, -39.302
1560.8000, -39.307
1561.2000, -39.298
1561.6000, -39.285
1562.0000, -39.290
1562.4000, -39.323
1562.8000, -39.384
1563.2000, -39.466
1563.6000, -39.582
1564.0000, -39.734
1564.4000, -39.919
1564.8000, -40.138
1565.2000, -40.395
1565.6000, -40.724
1566.0000, -41.096
1566.4000, -41.536
1566.8000, -42.014
1567.2000, -42.557
1567.6000, -43.117
1568.0000, -43.681
1568.4000, -44.229
1568.8000, -44.727
1569.2000, -45.154
1569.6000, -45.491
1570.0000, -45.695
1570.4000, -45.691
1570.8000, -45.531
1571.2000, -45.169
1571.6000, -44.669
1572.0000, -44.032
1572.4000, -43.330
1572.8000, -42.558
1573.2000, -41.752
1573.6000, -40.909
1574.0000, -40.067
1574.4000, -39.238
1574.8000, -38.437
1575.2000, -37.665
1575.6000, -36.915
1576.0000, -36.194
1576.4000, -35.510
1576.8000, -34.862
1577.2000, -34.238
1577.6000, -33.647
1578.0000, -33.098
1578.4000, -32.584
1578.8000, -32.097
1579.2000, -31.640
1579.6000, -31.212
1580.0000, -30.810
1580.4000, -30.434
1580.8000, -30.081
1581.2000, -29.753
1581.6000, -29.441
1582.0000, -29.153
1582.4000, -28.887
1582.8000, -28.641
1583.2000, -28.407
1583.6000, -28.188
1584.0000, -27.987
1584.4000, -27.808
1584.8000, -27.647
1585.2000, -27.505
1585.6000, -27.381
1586.0000, -27.282
1586.4000, -27.199
1586.8000, -27.138
1587.2000, -27.092
1587.6000, -27.067
1588.0000, -27.063
1588.4000, -27.079
1588.8000, -27.113
1589.2000, -27.163
1589.6000, -27.233
1590.0000, -27.324
1590.4000, -27.427
1590.8000, -27.552
1591.2000, -27.704
1591.6000, -27.875
1592.0000, -28.069
1592.4000, -28.289
1592.8000, -28.531
1593.2000, -28.800
1593.6000, -29.084
1594.0000, -29.404
1594.4000, -29.743
1594.8000, -30.109
1595.2000, -30.505
1595.6000, -30.931
1596.0000, -31.390
1596.4000, -31.874
1596.8000, -32.390
1597.2000, -32.930
1597.6000, -33.504
1598.0000, -34.093
1598.4000, -34.705
1598.8000, -35.329
1599.2000, -35.980
1599.6000, -36.641
1600.0000, -37.306
1600.4000, -37.966
1600.8000, -38.600
1601.2000, -39.199
1601.6000, -39.727
1602.0000, -40.169
1602.4000, -40.497
1602.8000, -40.686
1603.2000, -40.768
1603.6000, -40.722
1604.0000, -40.576
1604.4000, -40.365
1604.8000, -40.097
1605.2000, -39.803
1605.6000, -39.489
1606.0000, -39.177
1606.4000, -38.859
1606.8000, -38.536
1607.2000, -38.226
1607.6000, -37.934
1608.0000, -37.654
1608.4000, -37.391
1608.8000, -37.148
1609.2000, -36.933
1609.6000, -36.737
1610.0000, -36.565
1610.4000, -36.413
1610.8000, -36.279
1611.2000, -36.170
1611.6000, -36.080
1612.0000, -36.013
1612.4000, -35.972
1612.8000, -35.954
1613.2000, -35.953
1613.6000, -35.973
1614.0000, -36.017
1614.4000, -36.070
1614.8000, -36.138
1615.2000, -36.235
1615.6000, -36.342
1616.0000, -36.474
1616.4000, -36.616
1616.8000, -36.777
1617.2000, -36.951
1617.6000, -37.135
1618.0000, -37.330
1618.4000, -37.528
1618.8000, -37.740
1619.2000, -37.958
1619.6000, -38.184
1620.0000, -38.414
1620.4000, -38.654
1620.8000, -38.901
1621.2000, -39.157
1621.6000, -39.432
1622.0000, -39.698
1622.4000, -39.964
1622.8000, -40.236
1623.2000, -40.516
1623.6000, -40.784
1624.0000, -41.065
1624.4000, -41.348
1624.8000, -41.624
1625.2000, -41.894
1625.6000, -42.155
1626.0000, -42.404
1626.4000, -42.643
1626.8000, -42.863
1627.2000, -43.046
1627.6000, -43.221
1628.0000, -43.384
1628.4000, -43.533
1628.8000, -43.645
1629.2000, -43.752
1629.6000, -43.839
1630.0000, -43.889
1630.4000, -43.934
1630.8000, -43.964
1631.2000, -43.984
1631.6000, -43.984
1632.0000, -44.003
1632.4000, -43.993
1632.8000, -44.000
1633.2000, -43.990
1633.6000, -43.991
1634.0000, -43.992
1634.4000, -44.010
1634.8000, -44.026
1635.2000, -44.068
1635.6000, -44.122
1636.0000, -44.179
1636.4000, -44.254
1636.8000, -44.339
1637.2000, -44.422
1637.6000, -44.549
1638.0000, -44.675
1638.4000, -44.819
1638.8000, -44.982
1639.2000, -45.149
1639.6000, -45.348
1640.0000, -45.526
1640.4000, -45.750
1640.8000, -45.980
1641.2000, -46.218
1641.6000, -46.477
1642.0000, -46.739
1642.4000, -46.992
1642.8000, -47.267
1643.2000, -47.565
1643.6000, -47.804
1644.0000, -48.135
1644.4000, -48.368
1644.8000, -48.627
1645.2000, -48.859
1645.6000, -49.048
1646.0000, -49.179
1646.4000, -49.375
1646.8000, -49.455
1647.2000, -49.498
1647.6000, -49.561
1648.0000, -49.518
1648.4000, -49.525
1648.8000, -49.465
1649.2000, -49.419
1649.6000, -49.408
1650.0000, -49.373
1650.4000, -49.371
1650.8000, -49.396
1651.2000, -49.392
1651.6000, -49.429
1652.0000, -49.549
1652.4000, -49.624
1652.8000, -49.748
1653.2000, -49.895
1653.6000, -50.029
1654.0000, -50.229
1654.4000, -50.424
1654.8000, -50.606
1655.2000, -50.840
1655.6000, -51.038
1656.0000, -51.307
1656.4000, -51.536
1656.8000, -51.874
1657.2000, -52.070
1657.6000, -52.265
1658.0000, -52.502
1658.4000, -52.720
1658.8000, -52.908
1659.2000, -53.057
1659.6000, -53.145
1660.0000, -53.205
1660.4000, -53.337
1660.8000, -53.483
1661.2000, -53.384
1661.6000, -53.389
1662.0000, -53.514
1662.4000, -53.497
1662.8000, -53.497
1663.2000, -53.525
1663.6000, -53.660
1664.0000, -53.756
1664.4000, -53.824
1664.8000, -53.830
1665.2000, -54.090
1665.6000, -54.156
1666.0000, -54.235
1666.4000, -54.530
1666.8000, -54.586
1667.2000, -54.757
1667.6000, -54.914
1668.0000, -54.998
1668.4000, -55.062
1668.8000, -55.093
1669.2000, -55.239
1669.6000, -55.382
1670.0000, -55.361
1670.4000, -55.389
1670.8000, -55.600
1671.2000, -55.643
1671.6000, -55.661
1672.0000, -55.887
1672.4000, -56.123
1672.8000, -56.136
1673.2000, -56.364
1673.6000, -56.605
1674.0000, -56.929
1674.4000, -57.065
1674.8000, -57.153
1675.2000, -57.271
1675.6000, -57.591
1676.0000, -57.810
1676.4000, -57.653
1676.8000, -57.874
1677.2000, -57.794
1677.6000, -57.950
1678.0000, -57.694
1678.4000, -57.677
1678.8000, -58.032
1679.2000, -57.752
1679.6000, -57.857
1680.0000, -57.981
1680.4000, -58.079
1680.8000, -58.316
1681.2000, -58.194
1681.6000, -58.192
1682.0000, -58.356
1682.4000, -58.741
1682.8000, -58.723
1683.2000, -58.667
1683.6000, -58.957
1684.0000, -59.091
1684.4000, -58.911
1684.8000, -59.605
1685.2000, -59.381
1685.6000, -59.759
1686.0000, -59.778
1686.4000, -59.793
1686.8000, -60.153
1687.2000, -60.028
1687.6000, -60.429
1688.0000, -60.179
1688.4000, -60.532
1688.8000, -60.494
1689.2000, -60.715
1689.6000, -60.658
1690.0000, -59.748
1690.4000, -60.638
1690.8000, -60.716
1691.2000, -60.547
1691.6000, -60.871
1692.0000, -61.024
1692.4000, -60.880
1692.8000, -61.012
1693.2000, -60.929
1693.6000, -61.666
1694.0000, -61.247
1694.4000, -61.771
1694.8000, -61.212
1695.2000, -61.106
1695.6000, -61.867
1696.0000, -62.055
1696.4000, -62.011
1696.8000, -62.225
1697.2000, -62.684
1697.6000, -62.302
1698.0000, -61.642
1698.4000, -62.879
1698.8000, -63.070
1699.2000, -63.220
1699.6000, -63.022
1700.0000, -63.227
1700.4000, -63.112
1700.8000, -64.111
1701.2000, -63.121
1701.6000, -63.204
1702.0000, -63.824
1702.4000, -63.676
1702.8000, -64.091
1703.2000, -63.490
1703.6000, -64.247
1704.0000, -64.910
1704.4000, -63.040
1704.8000, -63.875
1705.2000, -64.562
1705.6000, -64.253
1706.0000, -64.570
1706.4000, -64.279
1706.8000, -64.264
1707.2000, -65.826
1707.6000, -65.665
1708.0000, -66.646
1708.4000, -65.314
1708.8000, -64.998
1709.2000, -65.804
1709.6000, -65.505
1710.0000, -65.576
1710.4000, -67.416
1710.8000, -64.827
1711.2000, -64.969
1711.6000, -66.350
1712.0000, -65.755
1712.4000, -65.719
1712.8000, -65.900
1713.2000, -68.060
1713.6000, -66.666
1714.0000, -66.531
1714.4000, -67.503
1714.8000, -66.172
1715.2000, -67.102
1715.6000, -66.957
1716.0000, -66.831
1716.4000, -67.249
1716.8000, -66.578
1717.2000, -66.921
1717.6000, -69.297
1718.0000, -68.316
1718.4000, -67.456
1718.8000, -69.360
1719.2000, -67.162
1719.6000, -70.251
1720.0000, -67.123
1720.4000, -67.904
1720.8000, -68.539
1721.2000, -68.428
1721.6000, -68.298
1722.0000, -72.150
1722.4000, -67.936
1722.8000, -80.420
1723.2000, -67.237
1723.6000, -68.205
1724.0000, -66.817
1724.4000, -68.157
1724.8000, -70.558
1725.2000, -69.265
1725.6000, -68.879
1726.0000, -67.942
1726.4000, -67.847
1726.8000, -71.864
1727.2000, -68.727
1727.6000, -69.248
1728.0000, -69.859
1728.4000, -69.661
1728.8000, -68.744
1729.2000, -73.790
1729.6000, -67.491
1730.0000, -72.479
1730.4000, -68.681
1730.8000, -76.407
1731.2000,-210.000
1731.6000, -70.697
1732.0000, -70.370
1732.4000, -72.026
1732.8000, -69.976
1733.2000, -71.616
1733.6000,-210.000
1734.0000, -69.374
1734.4000, -71.265
1734.8000, -81.857
1735.2000, -70.167
1735.6000, -77.158
1736.0000, -71.672
1736.4000, -72.276
1736.8000,-210.000
1737.2000, -71.464
1737.6000, -69.428
1738.0000, -70.994
1738.4000, -73.270
1738.8000, -72.900
1739.2000, -75.931
1739.6000, -73.686
1740.0000, -71.943
1740.4000, -71.023
1740.8000, -70.385
1741.2000, -72.433
1741.6000, -75.042
1742.0000, -68.409
1742.4000, -77.700
1742.8000, -68.454
1743.2000, -76.366
1743.6000, -75.772
1744.0000,-210.000
1744.4000,-210.000
1744.8000, -82.301
1745.2000, -73.273
1745.6000, -70.103
1746.0000, -76.372
1746.4000, -79.771
1746.8000, -69.686
1747.2000, -73.156
1747.6000, -75.233
1748.0000,-210.000
1748.4000,-210.000
1748.8000, -74.837
1749.2000, -71.502
1749.6000, -74.916
1750.0000,-210.000
1750.4000, -71.559
1750.8000, -73.432
1751.2000,-210.000
1751.6000, -69.225
1752.0000, -69.885
1752.4000, -75.133
1752.8000,-210.000
1753.2000, -70.483
1753.6000, -72.670
1754.0000, -77.114
1754.4000,-210.000
1754.8000, -71.563
1755.2000, -73.102
1755.6000, -70.428
1756.0000, -71.965
1756.4000,-210.000
1756.8000,-210.000
1757.2000,-210.000
1757.6000, -77.077
1758.0000, -72.307
1758.4000,-210.000
1758.8000, -72.344
1759.2000, -78.959
1759.6000, -78.103
1760.0000, -85.547
1760.4000, -75.410
1760.8000, -73.804
1761.2000, -78.196
1761.6000, -74.534
1762.0000, -71.346
1762.4000,-210.000
1762.8000,-210.000
1763.2000,-210.000
1763.6000, -71.571
1764.0000,-210.000
1764.4000, -77.580
1764.8000,-210.000
1765.2000, -77.904
1765.6000, -87.006
1766.0000, -71.134
1766.4000,-210.000
1766.8000, -77.647
1767.2000, -75.916
1767.6000, -72.707
1768.0000,-210.000
1768.4000, -71.970
1768.8000,-210.000
1769.2000,-210.000
1769.6000,-210.000
1770.0000, -74.289
1770.4000,-210.000
1770.8000, -72.973
1771.2000, -85.239
1771.6000, -77.686
1772.0000, -74.513
1772.4000,-210.000
1772.8000, -80.288
1773.2000, -72.782
1773.6000, -82.835
1774.0000,-210.000
1774.4000, -75.071
1774.8000,-210.000
1775.2000, -69.662
1775.6000,-210.000
1776.0000, -75.173
1776.4000, -77.726
1776.8000,-210.000
1777.2000,-210.000
1777.6000,-210.000
1778.0000, -75.999
1778.4000, -86.539
1778.8000,-210.000
1779.2000, -79.541
1779.6000, -79.722
1780.0000, -78.814
1780.4000, -72.586
1780.8000, -72.614
1781.2000, -72.553
1781.6000, -71.332
1782.0000, -79.350
1782.4000,-210.000
1782.8000, -76.000
1783.2000, -75.178
1783.6000, -77.934
1784.0000,-210.000
1784.4000,-210.000
1784.8000,-210.000
1785.2000,-210.000
1785.6000, -71.252
1786.0000, -74.992
1786.4000, -75.266
1786.8000, -71.997
1787.2000, -77.512
1787.6000, -80.891
1788.0000, -86.174
1788.4000, -74.150
1788.8000,-210.000
1789.2000,-210.000
1789.6000,-210.000
1790.0000, -74.496
1790.4000, -75.614
1790.8000, -90.066
1791.2000,-210.000
1791.6000, -84.105
1792.0000, -74.375
1792.4000,-210.000
1792.8000, -73.846
1793.2000, -78.012
1793.6000,-210.000
1794.0000,-210.000
1794.4000, -70.736
1794.8000,-210.000
1795.2000, -75.356
1795.6000, -76.292
1796.0000,-210.000
1796.4000, -74.377
1796.8000, -86.884
1797.2000,-210.000
1797.6000, -73.182
1798.0000, -75.144
1798.4000, -72.761
1798.8000,-210.000
1799.2000,-210.000
1799.6000, -71.382
1800.0000, -77.767
1800.4000, -76.383
1800.8000,-210.000
1801.2000,-210.000
1801.6000, -72.866
1802.0000, -74.725
1802.4000, -76.236
1802.8000, -73.833
1803.2000,-210.000
1803.6000, -72.561
1804.0000,-210.000
1804.4000, -74.561
1804.8000, -72.496
1805.2000, -77.671
1805.6000, -79.436
1806.0000,-210.000
1806.4000,-210.000
1806.8000,-210.000
1807.2000, -72.334
1807.6000, -71.081
1808.0000, -75.308
1808.4000, -78.557
1808.8000, -78.555
1809.2000, -75.103
1809.6000, -76.127
1810.0000, -74.950
1810.4000,-210.000
1810.8000,-210.000
1811.2000, -70.238
1811.6000, -77.603
1812.0000, -78.803
1812.4000, -69.865
1812.8000, -73.199
1813.2000, -78.032
1813.6000, -70.966
1814.0000, -72.632
1814.4000, -72.595
1814.8000, -80.166
1815.2000, -73.721
1815.6000, -69.438
1816.0000,-210.000
1816.4000, -76.925
1816.8000, -76.023
1817.2000, -71.573
1817.6000, -88.006
1818.0000, -77.547
1818.4000, -70.009
1818.8000, -70.264
1819.2000, -75.288
1819.6000,-210.000
1820.0000, -72.441
1820.4000, -74.732
1820.8000,-210.000
1821.2000, -74.030
1821.6000, -71.423
1822.0000,-210.000
1822.4000, -68.204
1822.8000, -91.017
1823.2000, -74.047
1823.6000, -79.701
1824.0000,-210.000
1824.4000, -71.322
1824.8000, -71.151
1825.2000, -75.706
1825.6000, -72.460
1826.0000, -75.603
1826.4000,-210.000
1826.8000, -74.455
1827.2000, -77.465
1827.6000, -73.385
1828.0000, -76.749
1828.4000, -77.221
1828.8000, -72.289
1829.2000, -72.844
1829.6000, -72.718
1830.0000, -87.125
1830.4000, -71.037
1830.8000,-210.000
1831.2000, -76.657
1831.6000, -74.301
1832.0000, -78.356
1832.4000, -78.089
1832.8000, -80.180
1833.2000, -70.037
1833.6000, -79.305
1834.0000, -81.392
1834.4000, -72.880
1834.8000, -75.235
1835.2000, -77.371
1835.6000, -75.423
1836.0000, -75.590
1836.4000, -74.486
1836.8000, -75.244
1837.2000,-210.000
1837.6000, -76.521
1838.0000, -78.908
1838.4000, -75.040
1838.8000,-210.000
1839.2000, -76.395
1839.6000, -82.600
1840.0000, -74.274
1840.4000, -75.751
1840.8000, -81.051
1841.2000, -87.443
1841.6000, -74.953
1842.0000, -74.822
1842.4000, -81.038
1842.8000, -70.062
1843.2000, -77.610
1843.6000, -77.892
1844.0000, -94.063
1844.4000, -83.790
1844.8000, -72.134
1845.2000, -99.783
1845.6000,-210.000
1846.0000, -72.907
1846.4000, -76.333
1846.8000, -71.886
1847.2000,-210.000
1847.6000, -78.094
1848.0000,-210.000
1848.4000, -77.384
1848.8000, -75.061
1849.2000, -71.818
1849.6000, -93.205
1850.0000, -75.032
1850.4000, -77.130
1850.8000, -75.607
1851.2000, -73.813
1851.6000, -72.708
1852.0000,-210.000
1852.4000, -72.357
1852.8000, -72.648
1853.2000, -70.600
1853.6000, -68.662
1854.0000, -70.955
1854.4000,-210.000
1854.8000, -70.736
1855.2000, -74.548
1855.6000, -78.859
1856.0000, -72.358
1856.4000, -71.869
1856.8000, -75.948
1857.2000, -74.687
1857.6000, -70.843
1858.0000,-210.000
1858.4000, -73.549
1858.8000,-210.000
1859.2000, -71.992
1859.6000, -70.769
1860.0000, -78.432
1860.4000, -71.312
1860.8000, -76.439
1861.2000, -72.156
1861.6000, -85.111
1862.0000, -72.564
1862.4000, -71.546
1862.8000, -73.258
1863.2000, -74.890
1863.6000,-210.000
1864.0000, -72.288
1864.4000, -75.628
1864.8000, -69.799
1865.2000, -72.481
1865.6000, -83.525
1866.0000, -69.297
1866.4000, -71.806
1866.8000, -71.061
1867.2000, -72.564
1867.6000, -76.503
1868.0000, -72.872
1868.4000, -70.540
1868.8000, -70.246
1869.2000, -69.286
1869.6000, -75.077
1870.0000, -71.990
1870.4000,-210.000
1870.8000, -74.231
1871.2000, -72.764
1871.6000, -72.234
1872.0000, -72.623
1872.4000, -79.713
1872.8000, -69.462
1873.2000,-210.000
1873.6000, -72.205
1874.0000, -72.266
1874.4000, -74.486
1874.8000, -81.674
1875.2000, -73.908
1875.6000, -73.885
1876.0000, -74.199
1876.4000,-210.000
1876.8000, -78.103
1877.2000, -70.402
1877.6000, -74.735
1878.0000, -75.644
1878.4000, -71.685
1878.8000,-210.000
1879.2000, -75.014
1879.6000, -75.603
1880.0000,-210.000
1880.4000, -71.922
1880.8000, -73.367
1881.2000, -72.230
1881.6000, -77.788
1882.0000, -70.946
1882.4000, -79.553
1882.8000, -68.942
1883.2000,-210.000
1883.6000, -71.219
1884.0000,-210.000
1884.4000,-210.000
1884.8000, -81.048
1885.2000, -72.329
1885.6000, -71.224
1886.0000, -75.617
1886.4000, -75.555
1886.8000, -75.170
1887.2000, -82.374
1887.6000, -73.049
1888.0000, -72.064
1888.4000, -77.623
1888.8000, -79.153
1889.2000, -80.445
1889.6000, -71.289
1890.0000, -76.781
1890.4000, -72.912
1890.8000, -77.261
1891.2000, -76.156
1891.6000, -84.342
1892.0000, -71.921
1892.4000, -85.009
1892.8000, -71.186
1893.2000, -76.761
1893.6000,-210.000
1894.0000,-210.000
1894.4000, -76.982
1894.8000, -77.419
1895.2000, -76.278
1895.6000, -75.377
1896.0000, -81.398
1896.4000, -71.687
1896.8000, -73.935
1897.2000, -71.745
1897.6000, -77.293
1898.0000,-210.000
1898.4000, -69.805
1898.8000, -75.272
1899.2000, -72.289
1899.6000, -73.522
1900.0000, -73.983
1900.4000, -94.883
1900.8000, -71.711
1901.2000, -72.574
1901.6000, -70.932
1902.0000, -71.661
1902.4000, -70.673
1902.8000, -70.838
1903.2000, -70.442
1903.6000, -70.584
1904.0000, -72.246
1904.4000, -68.748
1904.8000, -70.336
1905.2000, -71.977
1905.6000, -70.832
1906.0000, -68.107
1906.4000, -76.146
1906.8000, -69.855
1907.2000, -71.292
1907.6000, -70.717
1908.0000, -70.496
1908.4000, -68.902
1908.8000, -68.132
1909.2000, -72.561
1909.6000, -68.744
1910.0000, -74.411
1910.4000, -68.777
1910.8000, -71.825
1911.2000, -70.762
1911.6000, -68.164
1912.0000, -69.306
1912.4000, -74.889
1912.8000, -72.035
1913.2000, -68.603
1913.6000, -68.965
1914.0000, -69.616
1914.4000, -69.865
1914.8000, -70.399
1915.2000, -68.101
1915.6000, -70.538
1916.0000, -71.255
1916.4000, -70.435
1916.8000, -69.215
1917.2000, -70.465
1917.6000, -68.520
1918.0000, -68.684
1918.4000, -70.797
1918.8000, -74.542
1919.2000, -73.676
1919.6000, -71.012
1920.0000, -72.995
1920.4000, -70.874
1920.8000, -70.563
1921.2000, -73.271
1921.6000, -71.919
1922.0000, -72.508
1922.4000, -70.675
1922.8000, -76.586
1923.2000, -75.538
1923.6000, -69.963
1924.0000, -72.192
1924.4000, -76.681
1924.8000, -75.833
1925.2000,-210.000
1925.6000, -73.932
1926.0000, -71.600
1926.4000, -74.984
1926.8000, -74.788
1927.2000, -71.943
1927.6000, -80.504
1928.0000, -71.285
1928.4000, -75.790
1928.8000, -75.011
1929.2000,-210.000
1929.6000, -71.885
1930.0000, -68.615
1930.4000, -73.679
1930.8000,-210.000
1931.2000, -72.510
1931.6000,-210.000
1932.0000, -73.644
1932.4000, -72.213
1932.8000, -75.018
1933.2000, -73.304
1933.6000, -74.461
1934.0000,-210.000
1934.4000, -85.209
1934.8000,-210.000
1935.2000, -75.558
1935.6000, -76.867
1936.0000, -73.169
1936.4000,-210.000
1936.8000, -70.776
1937.2000, -75.289
1937.6000, -75.403
1938.0000,-210.000
1938.4000, -77.182
1938.8000, -75.350
1939.2000, -72.608
1939.6000,-210.000
1940.0000, -74.163
1940.4000,-210.000
1940.8000,-210.000
1941.2000, -75.358
1941.6000, -82.995
1942.0000, -70.056
1942.4000, -73.829
1942.8000,-210.000
1943.2000, -76.490
1943.6000, -74.335
1944.0000, -75.372
1944.4000,-210.000
1944.8000,-210.000
1945.2000, -71.367
1945.6000,-210.000
1946.0000, -73.544
1946.4000,-210.000
1946.8000,-210.000
1947.2000,-210.000
1947.6000,-210.000
1948.0000, -73.921
1948.4000, -71.246
1948.8000,-210.000
1949.2000, -82.403
1949.6000, -70.729
1950.0000,-210.000
1950.4000, -79.785
1950.8000,-210.000
1951.2000, -70.777
1951.6000, -71.391
1952.0000, -72.946
1952.4000,-210.000
1952.8000,-210.000
1953.2000,-210.000
1953.6000, -69.471
1954.0000,-210.000
1954.4000, -75.356
1954.8000, -74.415
1955.2000,-210.000
1955.6000,-210.000
1956.0000,-210.000
1956.4000, -72.474
1956.8000, -70.942
1957.2000, -73.378
1957.6000, -74.037
1958.0000,-210.000
1958.4000, -75.377
1958.8000, -74.277
1959.2000,-210.000
1959.6000,-210.000
1960.0000,-210.000
1960.4000, -76.961
1960.8000,-210.000
1961.2000,-210.000
1961.6000, -72.486
1962.0000, -75.648
1962.4000,-210.000
1962.8000, -75.085
1963.2000,-210.000
1963.6000, -72.567
1964.0000, -81.732
1964.4000, -76.017
1964.8000, -74.848
1965.2000, -76.102
1965.6000,-210.000
1966.0000, -75.168
1966.4000, -79.894
1966.8000, -76.708
1967.2000,-210.000
1967.6000, -85.825
1968.0000,-210.000
1968.4000,-210.000
1968.8000, -79.047
1969.2000,-210.000
1969.6000, -71.982
1970.0000, -78.174
1970.4000, -75.396
1970.8000,-210.000
1971.2000, -73.288
1971.6000, -72.551
1972.0000,-210.000
1972.4000, -72.871
1972.8000, -92.982
1973.2000, -71.045
1973.6000, -74.757
1974.0000, -76.412
1974.4000,-210.000
1974.8000, -72.542
1975.2000, -77.824
1975.6000,-210.000
1976.0000, -88.498
1976.4000, -76.757
1976.8000, -86.336
1977.2000,-210.000
1977.6000, -72.219
1978.0000,-210.000
1978.4000, -79.734
1978.8000, -76.373
1979.2000, -84.336
1979.6000, -80.149
1980.0000,-210.000
1980.4000, -75.568
1980.8000,-210.000
1981.2000, -73.949
1981.6000, -70.741
1982.0000,-210.000
1982.4000,-210.000
1982.8000, -72.575
1983.2000, -73.484
1983.6000,-100.343
1984.0000, -75.373
1984.4000, -80.084
1984.8000,-210.000
1985.2000,-210.000
1985.6000, -75.362
1986.0000, -75.480
1986.4000, -76.123
1986.8000, -81.666
1987.2000, -75.118
1987.6000, -77.468
1988.0000,-210.000
1988.4000, -82.116
1988.8000, -83.551
1989.2000, -72.830
1989.6000, -85.530
1990.0000, -76.890
1990.4000, -74.885
1990.8000,-210.000
1991.2000, -73.739
1991.6000, -76.513
1992.0000,-210.000
1992.4000, -71.709
1992.8000, -74.019
1993.2000, -73.518
1993.6000, -71.651
1994.0000,-210.000
1994.4000,-210.000
1994.8000, -76.940
1995.2000,-210.000
1995.6000, -73.481
1996.0000, -72.041
1996.4000, -72.498
1996.8000, -87.323
1997.2000, -76.021
1997.6000, -79.098
1998.0000, -76.032
1998.4000, -73.552
1998.8000, -74.079
1999.2000, -82.329
1999.6000, -75.279
2000.0000, -73.077
2000.4000,-210.000
2000.8000, -73.301
2001.2000, -74.239
2001.6000, -75.445
2002.0000, -71.617
2002.4000, -81.536
2002.8000,-210.000
2003.2000,-210.000
2003.6000, -72.740
2004.0000, -77.814
2004.4000, -75.172
2004.8000, -70.019
2005.2000, -77.276
2005.6000, -73.538
2006.0000, -78.728
2006.4000, -78.573
2006.8000,-210.000
2007.2000,-210.000
2007.6000, -71.723
2008.0000, -84.748
2008.4000, -73.845
2008.8000,-210.000
2009.2000, -73.338
2009.6000,-210.000
2010.0000, -75.127
2010.4000, -77.694
2010.8000, -72.013
2011.2000, -75.431
2011.6000, -79.240
2012.0000, -83.071
2012.4000, -70.823
2012.8000,-210.000
2013.2000, -76.129
2013.6000, -76.423
2014.0000, -74.429
2014.4000,-210.000
2014.8000, -75.678
2015.2000,-210.000
2015.6000,-210.000
2016.0000, -72.685
2016.4000, -71.642
2016.8000, -74.533
2017.2000,-210.000
2017.6000, -75.439
2018.0000, -79.130
2018.4000, -73.089
2018.8000,-210.000
2019.2000, -72.921
2019.6000, -72.753
2020.0000,-210.000
2020.4000,-210.000
2020.8000,-210.000
2021.2000, -72.211
2021.6000,-210.000
2022.0000, -93.041
2022.4000, -75.535
2022.8000, -73.554
2023.2000, -82.674
2023.6000, -74.015
2024.0000, -73.722
2024.4000, -74.394
2024.8000, -75.553
2025.2000, -77.935
2025.6000,-210.000
2026.0000,-210.000
2026.4000,-210.000
2026.8000, -86.318
2027.2000, -72.166
2027.6000,-210.000
2028.0000,-210.000
2028.4000,-210.000
2028.8000, -82.096
2029.2000,-210.000
2029.6000, -75.220
2030.0000, -73.099
2030.4000, -77.835
2030.8000,-210.000
2031.2000, -76.290
2031.6000, -81.930
2032.0000,-210.000
2032.4000, -72.703
2032.8000, -71.904
2033.2000,-210.000
2033.6000, -73.886
2034.0000,-210.000
2034.4000, -79.562
2034.8000,-210.000
2035.2000, -72.830
2035.6000, -77.906
2036.0000,-210.000
2036.4000,-210.000
2036.8000, -92.052
2037.2000, -75.975
2037.6000,-210.000
2038.0000,-210.000
2038.4000, -73.228
2038.8000,-210.000
2039.2000, -77.754
2039.6000, -82.198
2040.0000,-210.000
2040.4000,-210.000
2040.8000, -79.229
2041.2000,-210.000
2041.6000, -72.295
2042.0000, -77.461
2042.4000, -73.848
2042.8000, -87.874
2043.2000, -91.902
2043.6000,-210.000
2044.0000,-210.000
2044.4000,-210.000
2044.8000,-210.000
2045.2000, -80.499
2045.6000,-210.000
2046.0000, -70.384
2046.4000, -77.390
2046.8000,-210.000
2047.2000,-210.000
2047.6000, -88.908
2048.0000, -79.944
2048.4000,-210.000
2048.8000,-210.000
2049.2000, -74.368
2049.6000,-210.000
2050.0000, -83.662
2050.4000, -75.540
2050.8000,-210.000
2051.2000, -71.366
2051.6000, -70.373
2052.0000, -76.567
2052.4000, -75.732
2052.8000,-210.000
2053.2000, -73.683
2053.6000, -76.039
2054.0000, -86.736
2054.4000, -74.798
2054.8000, -71.004
2055.2000, -75.908
2055.6000,-210.000
2056.0000, -93.762
2056.4000, -71.781
2056.8000,-210.000
2057.2000,-210.000
2057.6000, -77.908
2058.0000,-210.000
2058.4000,-210.000
2058.8000, -84.717
2059.2000,-210.000
2059.6000, -69.711
2060.0000, -71.969
2060.4000, -73.848
2060.8000, -86.835
2061.2000,-210.000
2061.6000, -70.924
2062.0000,-210.000
2062.4000,-210.000
2062.8000,-210.000
2063.2000, -72.608
2063.6000,-210.000
2064.0000, -78.993
2064.4000, -71.320
2064.8000, -76.237
2065.2000,-210.000
2065.6000,-210.000
2066.0000, -73.600
2066.4000, -74.905
2066.8000,-210.000
2067.2000,-210.000
2067.6000, -79.746
2068.0000,-210.000
2068.4000, -76.707
2068.8000,-210.000
2069.2000,-210.000
2069.6000, -73.497
2070.0000, -71.758
2070.4000, -72.406
2070.8000, -78.680
2071.2000, -72.745
2071.6000,-210.000
2072.0000, -71.500
2072.4000, -81.887
2072.8000,-210.000
2073.2000, -71.243
2073.6000, -76.715
2074.0000, -76.580
2074.4000, -78.577
2074.8000, -72.303
2075.2000, -70.362
2075.6000, -71.979
2076.0000, -70.640
2076.4000,-210.000
2076.8000, -75.191
2077.2000, -69.961
2077.6000, -79.304
2078.0000, -71.846
2078.4000, -76.208
2078.8000, -73.585
2079.2000,-210.000
2079.6000, -75.902
2080.0000, -71.714
2080.4000, -72.102
2080.8000, -81.604
2081.2000, -71.113
2081.6000,-210.000
2082.0000, -74.138
2082.4000, -69.818
2082.8000, -85.918
2083.2000, -71.843
2083.6000, -82.584
2084.0000, -73.035
2084.4000, -77.186
2084.8000, -71.537
2085.2000, -71.273
2085.6000, -76.087
2086.0000, -75.603
2086.4000,-210.000
2086.8000, -72.280
2087.2000,-210.000
2087.6000, -73.876
2088.0000, -77.258
2088.4000,-210.000
2088.8000,-210.000
2089.2000, -72.195
2089.6000,-210.000
2090.0000, -87.544
2090.4000, -75.649
2090.8000, -86.404
2091.2000,-210.000
2091.6000, -76.416
2092.0000, -75.435
2092.4000,-210.000
2092.8000,-210.000
2093.2000, -79.702
2093.6000, -71.117
2094.0000,-210.000
2094.4000, -74.421
2094.8000, -75.696
2095.2000, -77.889
2095.6000, -77.711
2096.0000, -73.350
2096.4000, -72.349
2096.8000, -80.282
2097.2000,-210.000
2097.6000,-210.000
2098.0000, -74.572
2098.4000,-210.000
2098.8000, -75.190
2099.2000, -73.439
2099.6000, -73.127
2100.0000, -77.238
2100.4000,-210.000
2100.8000, -81.611
2101.2000,-210.000
2101.6000, -76.823
2102.0000, -82.523
2102.4000,-210.000
2102.8000,-210.000
2103.2000, -76.243
2103.6000,-210.000
2104.0000,-210.000
2104.4000, -71.567
2104.8000, -76.428
2105.2000, -74.041
2105.6000,-210.000
2106.0000, -75.673
2106.4000, -70.755
2106.8000,-210.000
2107.2000, -77.812
2107.6000, -71.406
2108.0000, -70.561
2108.4000,-210.000
2108.8000, -74.441
2109.2000,-210.000
2109.6000,-210.000
2110.0000, -78.524
2110.4000,-210.000
2110.8000,-210.000
2111.2000, -73.165
2111.6000,-210.000
2112.0000, -92.759
2112.4000,-210.000
2112.8000, -71.788
2113.2000, -73.532
2113.6000, -69.075
2114.0000,-210.000
2114.4000,-210.000
2114.8000,-210.000
2115.2000, -77.946
2115.6000, -75.608
2116.0000, -83.051
2116.4000, -82.607
2116.8000, -77.710
2117.2000, -73.748
2117.6000,-210.000
2118.0000, -72.666
2118.4000,-210.000
2118.8000,-210.000
2119.2000, -87.275
2119.6000,-210.000
2120.0000, -77.401
2120.4000, -76.469
2120.8000,-210.000
2121.2000, -76.671
2121.6000, -72.376
2122.0000,-210.000
2122.4000,-210.000
2122.8000, -74.042
2123.2000, -74.168
2123.6000,-210.000
2124.0000, -71.249
2124.4000, -79.836
2124.8000, -72.573
2125.2000, -76.113
2125.6000, -74.188
2126.0000,-210.000
2126.4000, -71.289
2126.8000,-210.000
2127.2000,-210.000
2127.6000, -72.568
2128.0000, -70.852
2128.4000,-210.000
2128.8000,-210.000
2129.2000, -71.779
2129.6000, -75.024
2130.0000,-210.000
2130.4000,-210.000
2130.8000, -74.225
2131.2000, -78.856
2131.6000,-210.000
2132.0000,-210.000
2132.4000, -75.975
2132.8000, -77.035
2133.2000,-210.000
2133.6000, -69.957
2134.0000, -80.740
2134.4000, -76.477
2134.8000,-210.000
2135.2000,-210.000
2135.6000,-210.000
2136.0000, -72.410
2136.4000,-210.000
2136.8000,-210.000
2137.2000, -75.959
2137.6000, -79.602
2138.0000, -79.108
2138.4000,-210.000
2138.8000, -71.600
2139.2000,-210.000
2139.6000,-210.000
2140.0000, -78.998
2140.4000, -75.671
2140.8000, -71.875
2141.2000,-210.000
2141.6000, -78.412
2142.0000,-210.000
2142.4000, -72.078
2142.8000, -70.881
2143.2000,-210.000
2143.6000, -70.687
2144.0000, -76.383
2144.4000, -81.730
2144.8000, -71.324
2145.2000, -72.431
2145.6000,-210.000
2146.0000, -75.832
2146.4000,-210.000
2146.8000, -97.249
2147.2000,-210.000
2147.6000, -75.003
2148.0000, -79.809
2148.4000, -79.791
2148.8000,-210.000
2149.2000, -73.128
2149.6000, -73.824
2150.0000,-210.000
2150.4000, -73.749
2150.8000, -78.273
2151.2000, -80.563
2151.6000, -70.372
2152.0000,-210.000
2152.4000, -81.502
2152.8000,-210.000
2153.2000, -74.990
2153.6000,-210.000
2154.0000,-210.000
2154.4000, -77.502
2154.8000,-210.000
2155.2000,-210.000
2155.6000, -80.402
2156.0000,-210.000
2156.4000, -75.446
2156.8000, -88.971
2157.2000, -69.475
2157.6000,-210.000
2158.0000, -83.105
2158.4000,-210.000
2158.8000, -77.920
2159.2000,-210.000
2159.6000, -71.556
2160.0000,-210.000
2160.4000,-210.000
2160.8000, -69.409
2161.2000,-210.000
2161.6000,-210.000
2162.0000,-210.000
2162.4000,-210.000
2162.8000,-210.000
2163.2000,-210.000
2163.6000, -75.930
2164.0000,-210.000
2164.4000,-210.000
2164.8000, -84.570
2165.2000,-210.000
2165.6000,-210.000
2166.0000,-210.000
2166.4000,-210.000
2166.8000, -74.799
2167.2000,-210.000
2167.6000,-210.000
2168.0000, -84.393
2168.4000, -80.029
2168.8000, -73.634
2169.2000, -79.216
2169.6000, -77.352
2170.0000,-210.000
2170.4000, -73.589
2170.8000,-210.000
2171.2000,-210.000
2171.6000,-210.000
2172.0000, -72.473
2172.4000, -74.940
2172.8000, -79.820
2173.2000, -72.384
2173.6000,-210.000
2174.0000, -76.961
2174.4000, -75.352
2174.8000, -75.461
2175.2000, -78.453
2175.6000, -81.591
2176.0000,-210.000
2176.4000, -71.294
2176.8000, -76.575
2177.2000, -73.400
2177.6000, -87.103
2178.0000,-210.000
2178.4000,-210.000
2178.8000, -77.796
2179.2000, -74.300
2179.6000,-210.000
2180.0000, -70.373
2180.4000,-210.000
2180.8000,-210.000
2181.2000, -82.736
2181.6000, -75.239
2182.0000, -71.260
2182.4000, -71.378
2182.8000, -79.779
2183.2000,-210.000
2183.6000,-210.000
2184.0000, -72.000
2184.4000, -73.426
2184.8000, -73.459
2185.2000, -70.555
2185.6000, -75.679
2186.0000, -87.328
2186.4000, -71.908
2186.8000, -83.450
2187.2000, -72.393
2187.6000, -77.120
2188.0000,-210.000
2188.4000, -72.544
2188.8000, -78.935
2189.2000, -74.812
2189.6000,-210.000
2190.0000,-210.000
2190.4000,-210.000
2190.8000, -79.138
2191.2000, -72.355
2191.6000, -75.401
2192.0000, -72.133
2192.4000,-210.000
2192.8000, -71.412
2193.2000, -70.514
2193.6000, -72.446
2194.0000,-210.000
2194.4000, -72.423
2194.8000, -76.048
2195.2000,-210.000
2195.6000, -70.133
2196.0000,-210.000
2196.4000, -75.238
2196.8000, -75.935
2197.2000, -71.689
2197.6000, -71.833
2198.0000,-210.000
2198.4000, -74.837
2198.8000, -72.451
2199.2000,-210.000
2199.6000,-210.000
2200.0000, -83.098
2200.4000, -85.636
2200.8000,-210.000
2201.2000, -78.201
2201.6000, -78.290
2202.0000,-210.000
2202.4000, -73.193
2202.8000, -79.193
2203.2000,-210.000
2203.6000, -77.974
2204.0000,-210.000
2204.4000, -72.133
2204.8000,-210.000
2205.2000, -79.806
2205.6000, -81.266
2206.0000,-210.000
2206.4000, -73.171
2206.8000,-210.000
2207.2000, -76.097
2207.6000, -72.617
2208.0000, -71.047
2208.4000, -75.065
2208.8000, -75.972
2209.2000, -72.429
2209.6000, -74.367
2210.0000, -70.269
2210.4000, -85.884
2210.8000,-210.000
2211.2000,-210.000
2211.6000, -71.728
2212.0000, -75.886
2212.4000, -75.157
2212.8000,-210.000
2213.2000, -80.847
2213.6000,-210.000
2214.0000, -74.247
2214.4000, -77.604
2214.8000, -79.077
2215.2000, -75.986
2215.6000, -80.035
2216.0000, -75.280
2216.4000,-210.000
2216.8000,-210.000
2217.2000, -78.331
2217.6000,-210.000
2218.0000, -72.131
2218.4000, -75.710
2218.8000,-210.000
2219.2000,-210.000
2219.6000,-210.000
2220.0000,-210.000
2220.4000, -72.495
2220.8000, -76.230
2221.2000,-210.000
2221.6000, -74.856
2222.0000,-210.000
2222.4000, -84.922
2222.8000, -70.601
2223.2000, -80.247
2223.6000, -75.138
2224.0000, -83.514
2224.4000,-210.000
2224.8000, -70.230
2225.2000,-210.000
2225.6000,-210.000
2226.0000,-210.000
2226.4000, -74.726
2226.8000,-210.000
2227.2000,-210.000
2227.6000, -71.548
2228.0000, -68.801
2228.4000,-210.000
2228.8000,-210.000
2229.2000,-210.000
2229.6000, -73.295
2230.0000, -75.981
2230.4000, -76.014
2230.8000,-210.000
2231.2000, -77.331
2231.6000,-210.000
2232.0000, -74.317
2232.4000,-210.000
2232.8000, -89.899
2233.2000, -72.148
2233.6000, -73.275
2234.0000, -75.022
2234.4000,-210.000
2234.8000,-210.000
2235.2000,-210.000
2235.6000,-210.000
2236.0000, -99.242
2236.4000,-210.000
2236.8000,-210.000
2237.2000, -76.114
2237.6000, -72.018
2238.0000, -76.744
2238.4000,-210.000
2238.8000, -73.408
2239.2000, -71.232
2239.6000,-210.000
2240.0000, -72.642
2240.4000, -75.304
2240.8000, -73.261
2241.2000,-210.000
2241.6000, -70.859
2242.0000, -77.383
2242.4000, -76.947
2242.8000,-210.000
2243.2000, -75.132
2243.6000, -81.735
2244.0000, -71.438
2244.4000,-210.000
2244.8000, -71.824
2245.2000,-210.000
2245.6000,-210.000
2246.0000, -77.014
2246.4000,-210.000
2246.8000,-210.000
2247.2000,-210.000
2247.6000, -73.454
2248.0000, -74.798
2248.4000, -79.221
2248.8000, -72.558
2249.2000,-210.000
2249.6000, -86.757
2250.0000,-210.000
2250.4000, -74.212
2250.8000,-210.000
2251.2000,-210.000
2251.6000, -75.282
2252.0000,-210.000
2252.4000, -75.653
2252.8000, -80.272
2253.2000,-210.000
2253.6000,-210.000
2254.0000, -73.672
2254.4000, -70.332
2254.8000, -76.194
2255.2000, -76.792
2255.6000,-210.000
2256.0000,-210.000
2256.4000, -76.475
2256.8000,-210.000
2257.2000, -70.280
2257.6000, -74.083
2258.0000, -72.693
2258.4000, -80.587
2258.8000,-210.000
2259.2000,-210.000
2259.6000,-210.000
2260.0000,-210.000
2260.4000, -73.032
2260.8000,-210.000
2261.2000,-210.000
2261.6000, -76.637
2262.0000,-210.000
2262.4000, -74.878
2262.8000, -73.246
2263.2000,-210.000
2263.6000,-210.000
2264.0000,-210.000
2264.4000,-210.000
2264.8000,-210.000
2265.2000, -74.004
2265.6000,-210.000
2266.0000,-210.000
2266.4000,-210.000
2266.8000, -71.612
2267.2000, -79.365
2267.6000, -73.945
2268.0000, -70.640
2268.4000,-210.000
2268.8000, -79.556
2269.2000, -73.094
2269.6000, -74.077
2270.0000,-210.000
2270.4000,-210.000
2270.8000, -73.874
2271.2000, -80.377
2271.6000,-210.000
2272.0000,-210.000
2272.4000, -75.260
2272.8000,-210.000
2273.2000,-210.000
2273.6000,-210.000
2274.0000,-210.000
2274.4000,-210.000
2274.8000,-210.000
2275.2000, -69.984
2275.6000,-210.000
2276.0000,-210.000
2276.4000,-210.000
2276.8000, -74.592
2277.2000, -76.119
2277.6000,-210.000
2278.0000,-210.000
2278.4000,-210.000
2278.8000, -76.325
2279.2000, -72.438
2279.6000, -72.805
2280.0000,-210.000
2280.4000, -74.143
2280.8000,-210.000
2281.2000,-210.000
2281.6000, -77.538
2282.0000,-210.000
2282.4000, -83.177
2282.8000,-210.000
2283.2000, -77.094
2283.6000, -79.709
2284.0000, -82.902
2284.4000,-210.000
2284.8000, -72.713
2285.2000,-210.000
2285.6000, -79.128
2286.0000,-210.000
2286.4000, -80.920
2286.8000, -73.226
2287.2000, -74.337
2287.6000,-210.000
2288.0000, -89.704
2288.4000, -74.641
2288.8000,-210.000
2289.2000, -73.237
2289.6000,-210.000
2290.0000, -78.328
2290.4000,-210.000
2290.8000, -72.565
2291.2000, -82.428
2291.6000, -72.282
2292.0000, -77.028
2292.4000,-210.000
2292.8000, -73.145
2293.2000, -87.134
2293.6000, -80.398
2294.0000, -71.185
2294.4000, -75.343
2294.8000, -72.605
2295.2000, -74.147
2295.6000,-210.000
2296.0000,-210.000
2296.4000, -75.188
2296.8000, -76.416
2297.2000,-210.000
2297.6000, -87.038
2298.0000,-210.000
2298.4000, -72.179
2298.8000, -70.179
2299.2000, -75.052
2299.6000, -86.045
2300.0000,-210.000
