75ECSV 	
// AQ6375E OPTICAL SPECTRUM ANALYZER //
40
"CTRWL",1650.000000
"SPAN",1300.000000
"START WL",1000.000000
"STOP WL",2300.000000
"WLFREQ", 0
"REFL",-32.1
"LSCL",10.0
"RESLN",2.000
"CUSTOM RES",0
"AVG",   1
"SMPLAUTO",      0
"SMPL",       3251
"SMPLINTVL",0.4000
"NORMAL"
"SENS LEVEL",-67.0
"MEAS"
"LSUNT",0
"NMSKH","OFF"
"RESCOR",0
"SMOOTH",0
"MEASWL",1
"MODELNAME",AQ6375E
"NEBWCAL0",    0
"NEBWCAL1",    0
"NEBWCALWL",   0
"RESCAL0_0",   9977
"RESCAL0_1",      0
"RESCAL0_2",      0
"RESCAL1_0",   9977
"RESCAL1_1",      0
"RESCAL1_2",      0









"[TRACE DATA]"
1000.0000, -68.510
1000.4000, -65.731
1000.8000,-210.000
1001.2000,-210.000
1001.6000, -67.734
1002.0000, -63.755
1002.4000, -62.407
1002.8000, -64.857
1003.2000,-210.000
1003.6000, -65.482
1004.0000,-210.000
1004.4000, -59.991
1004.8000, -67.500
1005.2000,-210.000
1005.6000, -67.123
1006.0000, -59.414
1006.4000,-210.000
1006.8000,-210.000
1007.2000, -60.985
1007.6000,-210.000
1008.0000, -60.817
1008.4000, -59.483
1008.8000,-210.000
1009.2000, -59.725
1009.6000,-210.000
1010.0000, -60.430
1010.4000,-210.000
1010.8000, -64.487
1011.2000, -63.418
1011.6000, -60.961
1012.0000, -58.100
1012.4000,-210.000
1012.8000, -67.906
1013.2000, -63.324
1013.6000, -62.639
1014.0000,-210.000
1014.4000, -60.460
1014.8000,-210.000
1015.2000, -62.390
1015.6000,-210.000
1016.0000, -62.606
1016.4000, -67.897
1016.8000,-210.000
1017.2000,-210.000
1017.6000, -69.468
1018.0000,-210.000
1018.4000, -62.299
1018.8000, -64.281
1019.2000,-210.000
1019.6000, -64.578
1020.0000, -66.307
1020.4000, -59.118
1020.8000,-210.000
1021.2000,-210.000
1021.6000, -62.467
1022.0000, -60.960
1022.4000, -61.776
1022.8000, -60.533
1023.2000,-210.000
1023.6000,-210.000
1024.0000, -62.641
1024.4000,-210.000
1024.8000, -70.770
1025.2000,-210.000
1025.6000,-210.000
1026.0000, -66.309
1026.4000, -67.959
1026.8000, -64.148
1027.2000, -62.538
1027.6000, -61.970
1028.0000, -62.271
1028.4000,-210.000
1028.8000,-210.000
1029.2000,-210.000
1029.6000, -58.885
1030.0000, -60.489
1030.4000, -63.492
1030.8000,-210.000
1031.2000, -60.730
1031.6000,-210.000
1032.0000, -58.851
1032.4000,-210.000
1032.8000,-210.000
1033.2000,-210.000
1033.6000, -62.774
1034.0000,-210.000
1034.4000, -63.575
1034.8000, -60.383
1035.2000,-210.000
1035.6000, -67.936
1036.0000, -62.828
1036.4000, -60.825
1036.8000, -74.220
1037.2000, -62.096
1037.6000, -64.960
1038.0000,-210.000
1038.4000, -72.171
1038.8000, -66.328
1039.2000,-210.000
1039.6000, -61.535
1040.0000, -65.347
1040.4000, -71.609
1040.8000,-210.000
1041.2000, -68.277
1041.6000,-210.000
1042.0000,-210.000
1042.4000,-210.000
1042.8000, -62.979
1043.2000, -69.399
1043.6000, -64.818
1044.0000,-210.000
1044.4000,-210.000
1044.8000, -60.666
1045.2000, -61.935
1045.6000, -61.459
1046.0000,-210.000
1046.4000, -68.250
1046.8000, -60.484
1047.2000, -62.115
1047.6000,-210.000
1048.0000, -62.559
1048.4000,-210.000
1048.8000, -62.625
1049.2000, -61.319
1049.6000,-210.000
1050.0000,-210.000
1050.4000, -67.478
1050.8000, -63.535
1051.2000,-210.000
1051.6000, -66.817
1052.0000,-210.000
1052.4000,-210.000
1052.8000,-210.000
1053.2000,-210.000
1053.6000, -68.708
1054.0000,-210.000
1054.4000, -63.458
1054.8000, -62.340
1055.2000,-210.000
1055.6000, -68.957
1056.0000, -63.772
1056.4000, -78.257
1056.8000, -68.863
1057.2000,-210.000
1057.6000,-210.000
1058.0000, -63.468
1058.4000, -67.790
1058.8000, -67.528
1059.2000,-210.000
1059.6000, -61.530
1060.0000,-210.000
1060.4000,-210.000
1060.8000, -64.595
1061.2000, -63.564
1061.6000,-210.000
1062.0000, -63.528
1062.4000,-210.000
1062.8000, -60.643
1063.2000,-210.000
1063.6000, -63.273
1064.0000,-210.000
1064.4000, -60.029
1064.8000, -64.225
1065.2000, -66.142
1065.6000, -63.120
1066.0000, -64.782
1066.4000,-210.000
1066.8000, -67.697
1067.2000, -63.490
1067.6000,-210.000
1068.0000,-210.000
1068.4000, -67.184
1068.8000, -63.756
1069.2000, -67.289
1069.6000,-210.000
1070.0000,-210.000
1070.4000, -60.440
1070.8000, -67.673
1071.2000, -61.859
1071.6000,-210.000
1072.0000, -73.605
1072.4000, -63.987
1072.8000,-210.000
1073.2000, -66.083
1073.6000, -60.166
1074.0000, -63.100
1074.4000,-210.000
1074.8000,-210.000
1075.2000,-210.000
1075.6000, -60.461
1076.0000, -68.790
1076.4000, -73.889
1076.8000, -63.647
1077.2000, -65.986
1077.6000, -66.189
1078.0000,-210.000
1078.4000, -64.027
1078.8000,-210.000
1079.2000, -63.087
1079.6000, -60.880
1080.0000,-210.000
1080.4000, -67.128
1080.8000,-210.000
1081.2000, -66.411
1081.6000, -73.160
1082.0000, -76.752
1082.4000,-210.000
1082.8000,-210.000
1083.2000,-210.000
1083.6000, -65.235
1084.0000, -63.776
1084.4000,-210.000
1084.8000,-210.000
1085.2000,-210.000
1085.6000, -71.072
1086.0000, -64.748
1086.4000,-210.000
1086.8000, -63.496
1087.2000,-210.000
1087.6000, -74.332
1088.0000,-210.000
1088.4000,-210.000
1088.8000, -64.895
1089.2000,-210.000
1089.6000,-210.000
1090.0000,-210.000
1090.4000,-210.000
1090.8000, -67.345
1091.2000, -64.381
1091.6000, -69.063
1092.0000,-210.000
1092.4000,-210.000
1092.8000,-210.000
1093.2000, -65.115
1093.6000, -60.571
1094.0000,-210.000
1094.4000, -63.377
1094.8000, -59.483
1095.2000, -61.292
1095.6000, -64.575
1096.0000, -61.505
1096.4000,-210.000
1096.8000, -60.209
1097.2000, -66.617
1097.6000, -61.778
1098.0000, -70.044
1098.4000,-210.000
1098.8000,-210.000
1099.2000, -67.192
1099.6000, -63.524
1100.0000, -65.377
1100.4000, -74.693
1100.8000, -69.697
1101.2000, -61.857
1101.6000,-210.000
1102.0000, -65.942
1102.4000, -59.998
1102.8000,-210.000
1103.2000,-210.000
1103.6000,-210.000
1104.0000, -69.598
1104.4000, -69.740
1104.8000, -73.693
1105.2000, -71.454
1105.6000,-210.000
1106.0000, -69.590
1106.4000,-210.000
1106.8000, -68.792
1107.2000, -65.018
1107.6000,-210.000
1108.0000, -72.873
1108.4000, -79.333
1108.8000, -63.888
1109.2000,-210.000
1109.6000, -63.124
1110.0000, -63.583
1110.4000,-210.000
1110.8000, -66.415
1111.2000,-210.000
1111.6000,-210.000
1112.0000,-210.000
1112.4000, -81.647
1112.8000,-210.000
1113.2000, -68.223
1113.6000,-210.000
1114.0000, -62.446
1114.4000, -73.643
1114.8000,-210.000
1115.2000,-210.000
1115.6000, -67.313
1116.0000, -69.561
1116.4000, -66.858
1116.8000, -65.508
1117.2000,-210.000
1117.6000, -63.795
1118.0000,-210.000
1118.4000, -66.876
1118.8000,-210.000
1119.2000, -69.448
1119.6000,-210.000
1120.0000, -63.069
1120.4000,-210.000
1120.8000, -62.542
1121.2000,-210.000
1121.6000, -75.509
1122.0000, -62.136
1122.4000, -66.437
1122.8000, -67.686
1123.2000,-210.000
1123.6000, -64.067
1124.0000, -64.721
1124.4000, -72.622
1124.8000, -68.832
1125.2000,-210.000
1125.6000, -63.944
1126.0000,-210.000
1126.4000, -65.240
1126.8000, -73.157
1127.2000, -62.019
1127.6000,-210.000
1128.0000, -70.617
1128.4000, -64.208
1128.8000,-210.000
1129.2000,-210.000
1129.6000, -60.956
1130.0000, -70.341
1130.4000, -68.876
1130.8000, -63.828
1131.2000,-210.000
1131.6000,-210.000
1132.0000, -64.613
1132.4000,-210.000
1132.8000,-210.000
1133.2000, -62.666
1133.6000,-210.000
1134.0000, -62.655
1134.4000, -65.525
1134.8000, -69.794
1135.2000, -71.248
1135.6000, -62.239
1136.0000,-210.000
1136.4000,-210.000
1136.8000,-210.000
1137.2000, -66.112
1137.6000, -64.248
1138.0000, -62.065
1138.4000, -65.858
1138.8000,-210.000
1139.2000, -67.105
1139.6000, -71.054
1140.0000,-210.000
1140.4000, -61.810
1140.8000,-210.000
1141.2000, -77.209
1141.6000, -66.150
1142.0000,-210.000
1142.4000, -64.212
1142.8000, -65.997
1143.2000,-210.000
1143.6000, -67.616
1144.0000,-210.000
1144.4000, -70.010
1144.8000, -63.602
1145.2000, -63.645
1145.6000,-210.000
1146.0000,-210.000
1146.4000,-210.000
1146.8000, -71.560
1147.2000,-210.000
1147.6000,-210.000
1148.0000, -64.677
1148.4000,-210.000
1148.8000,-210.000
1149.2000, -74.482
1149.6000, -74.863
1150.0000, -64.373
1150.4000, -62.712
1150.8000, -66.308
1151.2000, -70.480
1151.6000, -65.788
1152.0000, -71.461
1152.4000, -72.471
1152.8000,-210.000
1153.2000, -64.148
1153.6000,-210.000
1154.0000, -63.605
1154.4000, -66.070
1154.8000,-210.000
1155.2000,-210.000
1155.6000, -63.224
1156.0000, -64.178
1156.4000, -71.491
1156.8000,-210.000
1157.2000,-210.000
1157.6000,-210.000
1158.0000, -62.494
1158.4000, -74.233
1158.8000, -79.741
1159.2000,-210.000
1159.6000,-210.000
1160.0000, -65.399
1160.4000, -70.243
1160.8000,-210.000
1161.2000, -69.921
1161.6000, -64.906
1162.0000, -76.554
1162.4000, -67.644
1162.8000,-210.000
1163.2000, -62.364
1163.6000,-210.000
1164.0000,-210.000
1164.4000, -66.352
1164.8000, -64.216
1165.2000, -82.843
1165.6000,-210.000
1166.0000, -66.352
1166.4000, -66.069
1166.8000, -66.192
1167.2000, -72.896
1167.6000,-210.000
1168.0000, -64.606
1168.4000, -75.141
1168.8000, -64.087
1169.2000, -65.755
1169.6000,-210.000
1170.0000,-210.000
1170.4000,-210.000
1170.8000, -73.251
1171.2000,-210.000
1171.6000, -64.398
1172.0000, -68.593
1172.4000,-210.000
1172.8000, -67.538
1173.2000,-210.000
1173.6000, -70.789
1174.0000, -64.420
1174.4000, -75.304
1174.8000, -62.309
1175.2000, -76.806
1175.6000,-210.000
1176.0000, -64.111
1176.4000,-210.000
1176.8000, -66.813
1177.2000,-210.000
1177.6000,-210.000
1178.0000, -77.253
1178.4000, -78.320
1178.8000, -65.778
1179.2000, -64.641
1179.6000,-210.000
1180.0000, -66.548
1180.4000, -65.492
1180.8000, -67.113
1181.2000, -63.980
1181.6000, -70.942
1182.0000, -64.793
1182.4000, -63.051
1182.8000,-210.000
1183.2000, -67.554
1183.6000,-210.000
1184.0000, -70.555
1184.4000, -69.594
1184.8000,-210.000
1185.2000, -63.258
1185.6000, -65.796
1186.0000, -65.228
1186.4000,-210.000
1186.8000,-210.000
1187.2000, -64.734
1187.6000,-210.000
1188.0000, -68.306
1188.4000, -71.450
1188.8000,-210.000
1189.2000,-210.000
1189.6000, -67.591
1190.0000, -68.958
1190.4000, -71.219
1190.8000, -75.643
1191.2000,-210.000
1191.6000, -71.360
1192.0000,-210.000
1192.4000, -63.237
1192.8000, -65.152
1193.2000, -71.164
1193.6000,-210.000
1194.0000, -65.536
1194.4000, -67.320
1194.8000,-210.000
1195.2000, -67.675
1195.6000, -75.785
1196.0000, -65.726
1196.4000,-210.000
1196.8000,-210.000
1197.2000, -62.863
1197.6000,-210.000
1198.0000, -69.836
1198.4000, -65.744
1198.8000, -68.677
1199.2000, -66.856
1199.6000, -69.529
1200.0000, -70.450
1200.4000,-210.000
1200.8000, -66.935
1201.2000,-210.000
1201.6000, -83.857
1202.0000,-210.000
1202.4000, -64.991
1202.8000,-210.000
1203.2000,-210.000
1203.6000,-210.000
1204.0000, -65.001
1204.4000,-210.000
1204.8000, -68.930
1205.2000, -68.111
1205.6000, -65.736
1206.0000,-210.000
1206.4000, -68.088
1206.8000, -74.663
1207.2000,-210.000
1207.6000,-210.000
1208.0000, -66.259
1208.4000,-210.000
1208.8000,-210.000
1209.2000, -68.991
1209.6000,-210.000
1210.0000, -64.930
1210.4000,-210.000
1210.8000,-210.000
1211.2000, -69.846
1211.6000,-210.000
1212.0000,-210.000
1212.4000, -65.248
1212.8000, -64.321
1213.2000,-210.000
1213.6000, -69.600
1214.0000, -72.330
1214.4000, -69.553
1214.8000,-210.000
1215.2000,-210.000
1215.6000,-210.000
1216.0000, -71.157
1216.4000, -66.673
1216.8000,-210.000
1217.2000, -93.261
1217.6000, -68.822
1218.0000, -68.195
1218.4000, -70.591
1218.8000,-210.000
1219.2000,-210.000
1219.6000, -69.087
1220.0000,-210.000
1220.4000, -66.362
1220.8000, -76.241
1221.2000,-210.000
1221.6000, -67.369
1222.0000, -67.108
1222.4000,-210.000
1222.8000, -62.709
1223.2000,-210.000
1223.6000, -68.202
1224.0000, -64.761
1224.4000,-210.000
1224.8000,-210.000
1225.2000,-210.000
1225.6000,-210.000
1226.0000, -68.793
1226.4000, -70.146
1226.8000, -67.693
1227.2000,-210.000
1227.6000,-210.000
1228.0000,-210.000
1228.4000, -69.048
1228.8000, -67.419
1229.2000,-210.000
1229.6000, -73.801
1230.0000, -68.697
1230.4000, -69.239
1230.8000,-210.000
1231.2000,-210.000
1231.6000,-210.000
1232.0000, -69.748
1232.4000, -66.453
1232.8000,-210.000
1233.2000, -74.132
1233.6000,-210.000
1234.0000,-210.000
1234.4000,-210.000
1234.8000, -67.028
1235.2000,-210.000
1235.6000, -72.680
1236.0000,-210.000
1236.4000, -68.681
1236.8000, -69.781
1237.2000, -79.528
1237.6000,-210.000
1238.0000,-210.000
1238.4000, -75.276
1238.8000, -69.571
1239.2000, -66.027
1239.6000,-210.000
1240.0000,-210.000
1240.4000, -67.429
1240.8000, -64.335
1241.2000, -67.926
1241.6000,-210.000
1242.0000, -71.744
1242.4000,-210.000
1242.8000, -67.366
1243.2000,-210.000
1243.6000,-210.000
1244.0000, -67.519
1244.4000,-210.000
1244.8000, -67.312
1245.2000,-210.000
1245.6000, -65.603
1246.0000, -67.438
1246.4000, -80.325
1246.8000, -66.760
1247.2000,-210.000
1247.6000,-210.000
1248.0000,-210.000
1248.4000, -73.177
1248.8000, -71.257
1249.2000, -69.656
1249.6000, -68.726
1250.0000, -71.812
1250.4000,-210.000
1250.8000, -70.191
1251.2000, -80.701
1251.6000, -64.061
1252.0000,-210.000
1252.4000, -67.657
1252.8000, -69.668
1253.2000, -80.839
1253.6000,-210.000
1254.0000,-210.000
1254.4000,-210.000
1254.8000,-210.000
1255.2000, -65.795
1255.6000, -70.692
1256.0000,-210.000
1256.4000, -67.740
1256.8000, -71.222
1257.2000, -72.237
1257.6000, -72.545
1258.0000, -69.522
1258.4000, -67.003
1258.8000,-210.000
1259.2000,-210.000
1259.6000, -69.855
1260.0000, -70.751
1260.4000, -66.726
1260.8000, -69.278
1261.2000,-210.000
1261.6000,-210.000
1262.0000, -72.809
1262.4000,-210.000
1262.8000, -68.544
1263.2000, -80.924
1263.6000, -70.138
1264.0000, -69.140
1264.4000, -76.158
1264.8000, -69.951
1265.2000,-210.000
1265.6000, -63.740
1266.0000,-210.000
1266.4000, -68.271
1266.8000,-210.000
1267.2000, -72.353
1267.6000, -70.365
1268.0000, -75.865
1268.4000,-210.000
1268.8000,-210.000
1269.2000,-210.000
1269.6000, -69.351
1270.0000, -69.524
1270.4000,-210.000
1270.8000, -70.440
1271.2000, -80.511
1271.6000,-210.000
1272.0000, -69.893
1272.4000,-210.000
1272.8000, -72.777
1273.2000,-210.000
1273.6000,-210.000
1274.0000, -69.970
1274.4000, -70.779
1274.8000,-210.000
1275.2000, -76.095
1275.6000,-210.000
1276.0000,-210.000
1276.4000, -68.971
1276.8000,-210.000
1277.2000, -72.414
1277.6000, -67.499
1278.0000,-210.000
1278.4000, -81.473
1278.8000,-210.000
1279.2000, -71.134
1279.6000,-210.000
1280.0000,-210.000
1280.4000, -70.823
1280.8000,-210.000
1281.2000,-210.000
1281.6000, -69.445
1282.0000,-210.000
1282.4000, -71.547
1282.8000, -64.928
1283.2000,-210.000
1283.6000, -70.629
1284.0000,-210.000
1284.4000, -69.456
1284.8000, -76.599
1285.2000, -71.372
1285.6000,-210.000
1286.0000,-210.000
1286.4000, -68.900
1286.8000, -69.757
1287.2000,-210.000
1287.6000, -67.118
1288.0000, -64.304
1288.4000,-210.000
1288.8000, -70.540
1289.2000,-210.000
1289.6000, -82.979
1290.0000, -78.566
1290.4000,-210.000
1290.8000,-210.000
1291.2000, -69.862
1291.6000, -69.546
1292.0000,-210.000
1292.4000, -73.434
1292.8000, -71.239
1293.2000,-210.000
1293.6000, -66.401
1294.0000,-210.000
1294.4000,-210.000
1294.8000, -67.677
1295.2000,-210.000
1295.6000, -67.391
1296.0000,-210.000
1296.4000,-106.508
1296.8000,-210.000
1297.2000, -72.551
1297.6000,-210.000
1298.0000, -74.775
1298.4000, -70.389
1298.8000, -75.485
1299.2000, -88.527
1299.6000, -72.643
1300.0000, -65.560
1300.4000, -69.727
1300.8000,-210.000
1301.2000,-210.000
1301.6000, -88.973
1302.0000,-210.000
1302.4000,-210.000
1302.8000, -65.781
1303.2000, -64.560
1303.6000, -76.313
1304.0000,-210.000
1304.4000,-210.000
1304.8000,-210.000
1305.2000, -68.769
1305.6000,-210.000
1306.0000, -69.033
1306.4000,-210.000
1306.8000,-210.000
1307.2000,-210.000
1307.6000, -78.897
1308.0000,-210.000
1308.4000, -68.880
1308.8000, -78.952
1309.2000, -71.473
1309.6000, -78.496
1310.0000, -71.130
1310.4000, -70.373
1310.8000,-210.000
1311.2000,-210.000
1311.6000,-210.000
1312.0000, -69.864
1312.4000, -71.904
1312.8000, -71.881
1313.2000, -70.614
1313.6000, -75.185
1314.0000, -69.253
1314.4000, -69.057
1314.8000, -71.729
1315.2000, -69.580
1315.6000,-210.000
1316.0000, -68.686
1316.4000, -69.180
1316.8000,-210.000
1317.2000, -69.968
1317.6000,-210.000
1318.0000, -71.916
1318.4000, -65.865
1318.8000,-210.000
1319.2000,-210.000
1319.6000,-210.000
1320.0000,-210.000
1320.4000,-210.000
1320.8000, -68.914
1321.2000,-210.000
1321.6000, -78.821
1322.0000,-210.000
1322.4000,-210.000
1322.8000,-210.000
1323.2000,-210.000
1323.6000,-210.000
1324.0000,-210.000
1324.4000, -74.142
1324.8000,-210.000
1325.2000, -74.174
1325.6000, -68.438
1326.0000, -66.295
1326.4000, -74.407
1326.8000, -69.907
1327.2000, -73.609
1327.6000,-210.000
1328.0000, -69.863
1328.4000,-210.000
1328.8000, -71.857
1329.2000,-210.000
1329.6000, -67.898
1330.0000,-210.000
1330.4000, -71.273
1330.8000, -76.936
1331.2000,-210.000
1331.6000,-210.000
1332.0000,-210.000
1332.4000, -67.774
1332.8000, -69.856
1333.2000, -67.934
1333.6000,-210.000
1334.0000,-210.000
1334.4000,-210.000
1334.8000, -75.096
1335.2000,-210.000
1335.6000, -84.232
1336.0000, -71.293
1336.4000, -74.255
1336.8000, -70.690
1337.2000,-210.000
1337.6000,-210.000
1338.0000, -67.357
1338.4000,-210.000
1338.8000,-210.000
1339.2000,-210.000
1339.6000,-210.000
1340.0000, -67.185
1340.4000, -68.786
1340.8000, -73.212
1341.2000, -68.110
1341.6000,-210.000
1342.0000, -68.831
1342.4000, -65.941
1342.8000, -72.921
1343.2000,-210.000
1343.6000, -76.795
1344.0000,-210.000
1344.4000, -73.092
1344.8000, -67.112
1345.2000,-210.000
1345.6000, -68.731
1346.0000,-210.000
1346.4000, -68.961
1346.8000,-210.000
1347.2000, -78.139
1347.6000,-210.000
1348.0000, -74.738
1348.4000,-210.000
1348.8000,-210.000
1349.2000, -71.963
1349.6000,-210.000
1350.0000, -70.609
1350.4000,-210.000
1350.8000,-210.000
1351.2000,-210.000
1351.6000, -67.392
1352.0000,-210.000
1352.4000,-210.000
1352.8000, -77.073
1353.2000, -66.945
1353.6000, -70.997
1354.0000,-210.000
1354.4000, -72.482
1354.8000,-210.000
1355.2000,-210.000
1355.6000, -70.932
1356.0000,-210.000
1356.4000, -67.701
1356.8000,-210.000
1357.2000, -77.756
1357.6000, -71.629
1358.0000, -69.418
1358.4000, -69.660
1358.8000,-210.000
1359.2000, -67.766
1359.6000,-210.000
1360.0000,-210.000
1360.4000, -70.301
1360.8000, -72.810
1361.2000,-210.000
1361.6000, -73.361
1362.0000, -70.953
1362.4000, -67.067
1362.8000, -68.322
1363.2000, -67.403
1363.6000,-210.000
1364.0000, -68.077
1364.4000, -74.077
1364.8000, -71.193
1365.2000,-210.000
1365.6000, -69.711
1366.0000, -71.511
1366.4000,-210.000
1366.8000,-210.000
1367.2000,-210.000
1367.6000,-210.000
1368.0000,-210.000
1368.4000, -71.767
1368.8000, -67.075
1369.2000, -79.579
1369.6000,-210.000
1370.0000, -69.409
1370.4000, -78.626
1370.8000, -72.228
1371.2000, -71.494
1371.6000,-210.000
1372.0000, -75.149
1372.4000, -71.758
1372.8000, -76.495
1373.2000,-210.000
1373.6000,-210.000
1374.0000, -71.756
1374.4000, -76.238
1374.8000, -80.496
1375.2000, -69.278
1375.6000,-210.000
1376.0000,-210.000
1376.4000,-210.000
1376.8000, -72.843
1377.2000,-210.000
1377.6000, -71.792
1378.0000, -70.713
1378.4000,-210.000
1378.8000,-210.000
1379.2000, -69.836
1379.6000, -66.842
1380.0000, -67.841
1380.4000, -72.280
1380.8000, -69.593
1381.2000, -76.612
1381.6000, -83.705
1382.0000,-210.000
1382.4000,-210.000
1382.8000, -81.967
1383.2000,-210.000
1383.6000,-210.000
1384.0000,-210.000
1384.4000, -68.764
1384.8000, -70.137
1385.2000,-210.000
1385.6000,-210.000
1386.0000, -75.789
1386.4000,-210.000
1386.8000, -69.028
1387.2000, -68.106
1387.6000, -71.657
1388.0000, -70.567
1388.4000, -72.760
1388.8000, -69.037
1389.2000, -71.802
1389.6000,-210.000
1390.0000, -69.772
1390.4000,-210.000
1390.8000, -71.140
1391.2000,-210.000
1391.6000, -72.440
1392.0000,-210.000
1392.4000, -70.484
1392.8000, -73.042
1393.2000, -68.602
1393.6000, -78.976
1394.0000, -70.828
1394.4000, -68.740
1394.8000, -83.686
1395.2000,-210.000
1395.6000,-210.000
1396.0000,-210.000
1396.4000, -72.886
1396.8000,-210.000
1397.2000,-210.000
1397.6000, -76.628
1398.0000,-210.000
1398.4000, -68.753
1398.8000, -76.643
1399.2000, -70.841
1399.6000,-210.000
1400.0000, -79.845
1400.4000, -71.041
1400.8000,-210.000
1401.2000, -66.946
1401.6000, -76.786
1402.0000,-210.000
1402.4000, -67.745
1402.8000, -68.989
1403.2000, -69.693
1403.6000,-210.000
1404.0000, -71.658
1404.4000, -83.607
1404.8000, -82.406
1405.2000,-210.000
1405.6000,-210.000
1406.0000, -86.170
1406.4000, -74.695
1406.8000,-210.000
1407.2000, -70.978
1407.6000, -72.876
1408.0000, -71.166
1408.4000,-210.000
1408.8000,-210.000
1409.2000, -77.250
1409.6000,-210.000
1410.0000,-210.000
1410.4000, -79.645
1410.8000, -69.637
1411.2000,-210.000
1411.6000,-210.000
1412.0000, -75.224
1412.4000,-210.000
1412.8000, -79.669
1413.2000, -71.334
1413.6000, -66.567
1414.0000, -79.084
1414.4000, -75.294
1414.8000,-210.000
1415.2000, -68.911
1415.6000, -71.300
1416.0000, -78.757
1416.4000, -84.082
1416.8000, -75.459
1417.2000,-210.000
1417.6000, -82.115
1418.0000,-210.000
1418.4000, -87.040
1418.8000,-210.000
1419.2000,-210.000
1419.6000, -68.802
1420.0000, -72.037
1420.4000,-210.000
1420.8000, -77.448
1421.2000, -83.074
1421.6000,-210.000
1422.0000,-210.000
1422.4000,-210.000
1422.8000, -74.237
1423.2000,-210.000
1423.6000,-210.000
1424.0000, -78.334
1424.4000,-210.000
1424.8000,-210.000
1425.2000, -76.221
1425.6000, -70.200
1426.0000,-210.000
1426.4000, -66.842
1426.8000,-210.000
1427.2000, -70.396
1427.6000, -73.998
1428.0000, -71.632
1428.4000,-210.000
1428.8000,-210.000
1429.2000,-210.000
1429.6000, -74.376
1430.0000,-210.000
1430.4000, -71.323
1430.8000,-210.000
1431.2000, -70.600
1431.6000, -81.924
1432.0000, -71.929
1432.4000,-210.000
1432.8000,-210.000
1433.2000, -69.344
1433.6000, -77.321
1434.0000,-210.000
1434.4000, -72.740
1434.8000,-210.000
1435.2000, -72.772
1435.6000, -70.333
1436.0000, -68.638
1436.4000,-210.000
1436.8000, -68.965
1437.2000,-210.000
1437.6000, -76.513
1438.0000, -76.515
1438.4000, -70.026
1438.8000,-210.000
1439.2000, -70.410
1439.6000, -69.165
1440.0000, -68.330
1440.4000,-210.000
1440.8000, -78.867
1441.2000, -76.262
1441.6000,-210.000
1442.0000, -72.126
1442.4000, -74.780
1442.8000, -68.382
1443.2000,-210.000
1443.6000, -68.588
1444.0000, -71.107
1444.4000,-210.000
1444.8000, -70.243
1445.2000, -77.808
1445.6000,-210.000
1446.0000,-210.000
1446.4000, -73.032
1446.8000, -66.895
1447.2000, -78.726
1447.6000, -71.910
1448.0000,-210.000
1448.4000, -74.002
1448.8000, -74.193
1449.2000, -69.509
1449.6000,-210.000
1450.0000, -70.186
1450.4000, -68.084
1450.8000, -70.213
1451.2000, -70.694
1451.6000,-210.000
1452.0000, -69.661
1452.4000, -68.533
1452.8000, -68.133
1453.2000, -77.068
1453.6000, -69.602
1454.0000, -69.177
1454.4000, -67.765
1454.8000, -69.423
1455.2000, -68.163
1455.6000, -71.842
1456.0000, -68.077
1456.4000, -71.229
1456.8000, -68.888
1457.2000, -70.013
1457.6000,-210.000
1458.0000, -72.967
1458.4000, -71.363
1458.8000, -68.578
1459.2000, -68.348
1459.6000, -66.930
1460.0000, -70.395
1460.4000, -71.697
1460.8000,-210.000
1461.2000, -68.415
1461.6000, -68.397
1462.0000, -67.628
1462.4000, -67.900
1462.8000, -71.557
1463.2000, -67.205
1463.6000, -71.160
1464.0000, -68.021
1464.4000, -69.363
1464.8000, -66.997
1465.2000, -69.578
1465.6000, -71.011
1466.0000, -65.976
1466.4000, -65.650
1466.8000, -66.506
1467.2000, -65.176
1467.6000, -68.333
1468.0000, -71.862
1468.4000, -67.882
1468.8000, -66.518
1469.2000, -71.425
1469.6000, -69.652
1470.0000, -65.048
1470.4000, -68.195
1470.8000, -76.196
1471.2000, -68.374
1471.6000, -66.909
1472.0000, -65.732
1472.4000, -68.996
1472.8000, -65.597
1473.2000, -66.666
1473.6000, -66.299
1474.0000, -64.086
1474.4000, -64.171
1474.8000, -64.680
1475.2000, -65.143
1475.6000, -63.609
1476.0000, -62.514
1476.4000, -62.437
1476.8000, -62.763
1477.2000, -62.288
1477.6000, -61.600
1478.0000, -61.641
1478.4000, -61.151
1478.8000, -61.968
1479.2000, -60.511
1479.6000, -60.594
1480.0000, -60.428
1480.4000, -60.065
1480.8000, -59.871
1481.2000, -59.638
1481.6000, -60.041
1482.0000, -59.849
1482.4000, -59.647
1482.8000, -59.353
1483.2000, -59.674
1483.6000, -58.673
1484.0000, -59.384
1484.4000, -58.640
1484.8000, -59.096
1485.2000, -58.928
1485.6000, -59.321
1486.0000, -58.721
1486.4000, -58.942
1486.8000, -58.502
1487.2000, -58.719
1487.6000, -58.840
1488.0000, -58.913
1488.4000, -59.261
1488.8000, -59.133
1489.2000, -58.945
1489.6000, -58.605
1490.0000, -58.976
1490.4000, -59.724
1490.8000, -59.123
1491.2000, -59.350
1491.6000, -58.993
1492.0000, -59.023
1492.4000, -59.120
1492.8000, -59.105
1493.2000, -58.497
1493.6000, -59.159
1494.0000, -58.687
1494.4000, -59.006
1494.8000, -58.712
1495.2000, -58.954
1495.6000, -58.533
1496.0000, -57.935
1496.4000, -58.343
1496.8000, -57.963
1497.2000, -57.743
1497.6000, -57.434
1498.0000, -57.088
1498.4000, -57.039
1498.8000, -56.750
1499.2000, -56.321
1499.6000, -55.951
1500.0000, -55.918
1500.4000, -55.551
1500.8000, -55.249
1501.2000, -55.122
1501.6000, -54.929
1502.0000, -54.379
1502.4000, -54.326
1502.8000, -54.089
1503.2000, -53.933
1503.6000, -53.686
1504.0000, -53.407
1504.4000, -53.135
1504.8000, -52.844
1505.2000, -52.717
1505.6000, -52.472
1506.0000, -52.214
1506.4000, -52.083
1506.8000, -51.815
1507.2000, -51.607
1507.6000, -51.480
1508.0000, -51.267
1508.4000, -51.084
1508.8000, -50.879
1509.2000, -50.718
1509.6000, -50.640
1510.0000, -50.441
1510.4000, -50.231
1510.8000, -50.123
1511.2000, -49.916
1511.6000, -49.809
1512.0000, -49.699
1512.4000, -49.528
1512.8000, -49.437
1513.2000, -49.319
1513.6000, -49.128
1514.0000, -49.028
1514.4000, -48.905
1514.8000, -48.799
1515.2000, -48.669
1515.6000, -48.553
1516.0000, -48.430
1516.4000, -48.273
1516.8000, -48.117
1517.2000, -47.991
1517.6000, -47.826
1518.0000, -47.663
1518.4000, -47.507
1518.8000, -47.338
1519.2000, -47.140
1519.6000, -46.945
1520.0000, -46.767
1520.4000, -46.540
1520.8000, -46.315
1521.2000, -46.106
1521.6000, -45.868
1522.0000, -45.627
1522.4000, -45.364
1522.8000, -45.091
1523.2000, -44.826
1523.6000, -44.514
1524.0000, -44.244
1524.4000, -43.967
1524.8000, -43.665
1525.2000, -43.403
1525.6000, -43.114
1526.0000, -42.838
1526.4000, -42.554
1526.8000, -42.282
1527.2000, -42.021
1527.6000, -41.747
1528.0000, -41.495
1528.4000, -41.241
1528.8000, -40.993
1529.2000, -40.747
1529.6000, -40.508
1530.0000, -40.281
1530.4000, -40.052
1530.8000, -39.833
1531.2000, -39.624
1531.6000, -39.412
1532.0000, -39.212
1532.4000, -39.021
1532.8000, -38.827
1533.2000, -38.627
1533.6000, -38.436
1534.0000, -38.241
1534.4000, -38.043
1534.8000, -37.838
1535.2000, -37.629
1535.6000, -37.415
1536.0000, -37.188
1536.4000, -36.952
1536.8000, -36.721
1537.2000, -36.472
1537.6000, -36.216
1538.0000, -35.965
1538.4000, -35.711
1538.8000, -35.457
1539.2000, -35.206
1539.6000, -34.963
1540.0000, -34.728
1540.4000, -34.501
1540.8000, -34.279
1541.2000, -34.070
1541.6000, -33.874
1542.0000, -33.690
1542.4000, -33.515
1542.8000, -33.352
1543.2000, -33.190
1543.6000, -33.039
1544.0000, -32.894
1544.4000, -32.761
1544.8000, -32.638
1545.2000, -32.530
1545.6000, -32.438
1546.0000, -32.355
1546.4000, -32.284
1546.8000, -32.224
1547.2000, -32.174
1547.6000, -32.133
1548.0000, -32.098
1548.4000, -32.078
1548.8000, -32.072
1549.2000, -32.080
1549.6000, -32.100
1550.0000, -32.134
1550.4000, -32.188
1550.8000, -32.251
1551.2000, -32.334
1551.6000, -32.431
1552.0000, -32.551
1552.4000, -32.687
1552.8000, -32.841
1553.2000, -33.012
1553.6000, -33.201
1554.0000, -33.413
1554.4000, -33.644
1554.8000, -33.891
1555.2000, -34.158
1555.6000, -34.445
1556.0000, -34.746
1556.4000, -35.057
1556.8000, -35.377
1557.2000, -35.718
1557.6000, -36.075
1558.0000, -36.457
1558.4000, -36.860
1558.8000, -37.282
1559.2000, -37.739
1559.6000, -38.207
1560.0000, -38.679
1560.4000, -39.138
1560.8000, -39.591
1561.2000, -40.022
1561.6000, -40.447
1562.0000, -40.867
1562.4000, -41.273
1562.8000, -41.640
1563.2000, -41.950
1563.6000, -42.206
1564.0000, -42.359
1564.4000, -42.410
1564.8000, -42.378
1565.2000, -42.268
1565.6000, -42.111
1566.0000, -41.924
1566.4000, -41.717
1566.8000, -41.491
1567.2000, -41.247
1567.6000, -40.982
1568.0000, -40.683
1568.4000, -40.374
1568.8000, -40.054
1569.2000, -39.736
1569.6000, -39.440
1570.0000, -39.185
1570.4000, -38.946
1570.8000, -38.744
1571.2000, -38.554
1571.6000, -38.383
1572.0000, -38.209
1572.4000, -38.056
1572.8000, -37.914
1573.2000, -37.776
1573.6000, -37.660
1574.0000, -37.561
1574.4000, -37.470
1574.8000, -37.376
1575.2000, -37.288
1575.6000, -37.198
1576.0000, -37.106
1576.4000, -37.013
1576.8000, -36.917
1577.2000, -36.826
1577.6000, -36.741
1578.0000, -36.656
1578.4000, -36.565
1578.8000, -36.473
1579.2000, -36.380
1579.6000, -36.286
1580.0000, -36.194
1580.4000, -36.111
1580.8000, -36.035
1581.2000, -35.967
1581.6000, -35.897
1582.0000, -35.831
1582.4000, -35.770
1582.8000, -35.714
1583.2000, -35.654
1583.6000, -35.601
1584.0000, -35.559
1584.4000, -35.523
1584.8000, -35.494
1585.2000, -35.469
1585.6000, -35.454
1586.0000, -35.435
1586.4000, -35.411
1586.8000, -35.386
1587.2000, -35.358
1587.6000, -35.331
1588.0000, -35.307
1588.4000, -35.289
1588.8000, -35.274
1589.2000, -35.262
1589.6000, -35.242
1590.0000, -35.226
1590.4000, -35.208
1590.8000, -35.195
1591.2000, -35.183
1591.6000, -35.173
1592.0000, -35.173
1592.4000, -35.184
1592.8000, -35.191
1593.2000, -35.201
1593.6000, -35.196
1594.0000, -35.201
1594.4000, -35.190
1594.8000, -35.177
1595.2000, -35.161
1595.6000, -35.146
1596.0000, -35.138
1596.4000, -35.129
1596.8000, -35.119
1597.2000, -35.106
1597.6000, -35.088
1598.0000, -35.070
1598.4000, -35.051
1598.8000, -35.034
1599.2000, -35.027
1599.6000, -35.027
1600.0000, -35.039
1600.4000, -35.063
1600.8000, -35.084
1601.2000, -35.100
1601.6000, -35.112
1602.0000, -35.129
1602.4000, -35.142
1602.8000, -35.157
1603.2000, -35.182
1603.6000, -35.218
1604.0000, -35.262
1604.4000, -35.309
1604.8000, -35.370
1605.2000, -35.429
1605.6000, -35.487
1606.0000, -35.552
1606.4000, -35.620
1606.8000, -35.689
1607.2000, -35.768
1607.6000, -35.858
1608.0000, -35.956
1608.4000, -36.062
1608.8000, -36.173
1609.2000, -36.291
1609.6000, -36.410
1610.0000, -36.526
1610.4000, -36.646
1610.8000, -36.775
1611.2000, -36.915
1611.6000, -37.060
1612.0000, -37.227
1612.4000, -37.405
1612.8000, -37.595
1613.2000, -37.801
1613.6000, -38.022
1614.0000, -38.260
1614.4000, -38.505
1614.8000, -38.771
1615.2000, -39.057
1615.6000, -39.358
1616.0000, -39.683
1616.4000, -40.026
1616.8000, -40.396
1617.2000, -40.797
1617.6000, -41.201
1618.0000, -41.634
1618.4000, -42.074
1618.8000, -42.531
1619.2000, -42.998
1619.6000, -43.495
1620.0000, -44.007
1620.4000, -44.531
1620.8000, -45.061
1621.2000, -45.593
1621.6000, -46.131
1622.0000, -46.658
1622.4000, -47.142
1622.8000, -47.611
1623.2000, -48.007
1623.6000, -48.343
1624.0000, -48.653
1624.4000, -48.829
1624.8000, -48.965
1625.2000, -48.996
1625.6000, -48.937
1626.0000, -48.824
1626.4000, -48.652
1626.8000, -48.479
1627.2000, -48.248
1627.6000, -48.049
1628.0000, -47.839
1628.4000, -47.601
1628.8000, -47.423
1629.2000, -47.246
1629.6000, -47.067
1630.0000, -46.924
1630.4000, -46.819
1630.8000, -46.738
1631.2000, -46.667
1631.6000, -46.610
1632.0000, -46.631
1632.4000, -46.633
1632.8000, -46.652
1633.2000, -46.712
1633.6000, -46.797
1634.0000, -46.890
1634.4000, -47.030
1634.8000, -47.173
1635.2000, -47.383
1635.6000, -47.571
1636.0000, -47.807
1636.4000, -48.013
1636.8000, -48.298
1637.2000, -48.546
1637.6000, -48.825
1638.0000, -49.153
1638.4000, -49.413
1638.8000, -49.745
1639.2000, -50.129
1639.6000, -50.414
1640.0000, -50.710
1640.4000, -51.084
1640.8000, -51.402
1641.2000, -51.699
1641.6000, -51.980
1642.0000, -52.335
1642.4000, -52.587
1642.8000, -52.743
1643.2000, -52.988
1643.6000, -53.195
1644.0000, -53.271
1644.4000, -53.440
1644.8000, -53.602
1645.2000, -53.729
1645.6000, -53.796
1646.0000, -53.978
1646.4000, -53.981
1646.8000, -54.057
1647.2000, -54.372
1647.6000, -54.525
1648.0000, -54.760
1648.4000, -55.137
1648.8000, -55.327
1649.2000, -55.623
1649.6000, -56.104
1650.0000, -56.326
1650.4000, -56.745
1650.8000, -56.736
1651.2000, -57.335
1651.6000, -57.278
1652.0000, -57.870
1652.4000, -57.941
1652.8000, -58.165
1653.2000, -58.262
1653.6000, -58.192
1654.0000, -58.128
1654.4000, -58.075
1654.8000, -58.092
1655.2000, -58.061
1655.6000, -57.964
1656.0000, -58.213
1656.4000, -57.531
1656.8000, -58.017
1657.2000, -57.758
1657.6000, -57.410
1658.0000, -57.566
1658.4000, -57.701
1658.8000, -57.823
1659.2000, -57.719
1659.6000, -58.033
1660.0000, -58.030
1660.4000, -58.404
1660.8000, -58.483
1661.2000, -58.995
1661.6000, -59.694
1662.0000, -59.946
1662.4000, -60.928
1662.8000, -61.822
1663.2000, -62.171
1663.6000, -62.718
1664.0000, -65.276
1664.4000, -65.738
1664.8000, -67.872
1665.2000, -67.855
1665.6000, -67.926
1666.0000, -67.677
1666.4000, -69.738
1666.8000, -66.645
1667.2000, -67.699
1667.6000, -65.919
1668.0000, -67.286
1668.4000, -65.177
1668.8000, -65.281
1669.2000, -65.074
1669.6000, -66.177
1670.0000, -65.127
1670.4000, -66.193
1670.8000, -65.179
1671.2000, -65.770
1671.6000, -68.918
1672.0000, -65.769
1672.4000, -69.801
1672.8000, -74.325
1673.2000, -70.326
1673.6000, -72.843
1674.0000,-210.000
1674.4000,-210.000
1674.8000, -73.407
1675.2000, -75.960
1675.6000, -70.766
1676.0000, -72.237
1676.4000,-210.000
1676.8000, -70.651
1677.2000, -71.825
1677.6000, -71.101
1678.0000, -70.795
1678.4000, -67.918
1678.8000, -70.907
1679.2000,-210.000
1679.6000, -66.426
1680.0000, -69.448
1680.4000, -71.330
1680.8000, -67.199
1681.2000, -70.748
1681.6000, -67.346
1682.0000, -70.016
1682.4000, -66.100
1682.8000, -67.600
1683.2000, -66.498
1683.6000, -65.702
1684.0000, -66.693
1684.4000, -65.890
1684.8000, -67.636
1685.2000, -69.178
1685.6000, -66.497
1686.0000, -70.937
1686.4000, -68.898
1686.8000, -71.248
1687.2000, -69.842
1687.6000, -70.721
1688.0000, -74.177
1688.4000, -83.584
1688.8000, -71.551
1689.2000, -71.308
1689.6000,-210.000
1690.0000, -70.967
1690.4000, -69.090
1690.8000, -71.466
1691.2000,-210.000
1691.6000, -74.314
1692.0000, -72.524
1692.4000, -76.069
1692.8000, -78.361
1693.2000, -73.600
1693.6000, -68.988
1694.0000, -73.198
1694.4000, -78.255
1694.8000, -72.678
1695.2000, -70.900
1695.6000, -69.007
1696.0000, -75.308
1696.4000, -68.903
1696.8000, -76.118
1697.2000, -75.758
1697.6000, -69.469
1698.0000, -79.029
1698.4000, -71.399
1698.8000,-210.000
1699.2000, -69.538
1699.6000, -74.795
1700.0000, -83.415
1700.4000, -78.088
1700.8000, -72.445
1701.2000,-210.000
1701.6000, -76.063
1702.0000, -77.260
1702.4000, -78.872
1702.8000,-210.000
1703.2000, -70.053
1703.6000,-210.000
1704.0000,-210.000
1704.4000, -86.843
1704.8000, -72.600
1705.2000, -75.572
1705.6000,-210.000
1706.0000, -72.868
1706.4000, -79.414
1706.8000, -80.221
1707.2000, -72.220
1707.6000, -85.755
1708.0000, -73.396
1708.4000, -73.701
1708.8000,-210.000
1709.2000,-210.000
1709.6000, -82.159
1710.0000, -81.049
1710.4000, -72.412
1710.8000,-210.000
1711.2000, -75.483
1711.6000, -89.136
1712.0000,-210.000
1712.4000,-210.000
1712.8000,-210.000
1713.2000,-210.000
1713.6000, -72.731
1714.0000,-210.000
1714.4000,-210.000
1714.8000,-210.000
1715.2000,-210.000
1715.6000, -75.095
1716.0000, -70.137
1716.4000,-210.000
1716.8000,-210.000
1717.2000,-210.000
1717.6000,-210.000
1718.0000,-210.000
1718.4000, -70.632
1718.8000,-210.000
1719.2000, -78.665
1719.6000,-210.000
1720.0000,-210.000
1720.4000, -68.887
1720.8000,-210.000
1721.2000, -74.849
1721.6000,-210.000
1722.0000,-210.000
1722.4000,-210.000
1722.8000,-210.000
1723.2000, -72.759
1723.6000,-210.000
1724.0000, -73.282
1724.4000,-210.000
1724.8000,-210.000
1725.2000, -72.657
1725.6000, -79.862
1726.0000,-210.000
1726.4000, -72.114
1726.8000,-210.000
1727.2000, -79.244
1727.6000, -71.675
1728.0000,-210.000
1728.4000, -84.271
1728.8000, -83.603
1729.2000, -73.895
1729.6000,-210.000
1730.0000, -82.461
1730.4000,-210.000
1730.8000, -72.768
1731.2000, -72.530
1731.6000,-210.000
1732.0000,-210.000
1732.4000, -73.935
1732.8000,-210.000
1733.2000, -78.382
1733.6000, -72.808
1734.0000, -86.415
1734.4000, -76.747
1734.8000,-210.000
1735.2000, -85.649
1735.6000,-210.000
1736.0000,-210.000
1736.4000,-210.000
1736.8000, -70.285
1737.2000, -73.731
1737.6000,-210.000
1738.0000,-210.000
1738.4000, -83.556
1738.8000, -74.714
1739.2000, -68.858
1739.6000, -73.482
1740.0000,-210.000
1740.4000, -71.023
1740.8000, -76.717
1741.2000,-210.000
1741.6000,-210.000
1742.0000, -75.704
1742.4000, -83.412
1742.8000, -74.578
1743.2000,-210.000
1743.6000,-210.000
1744.0000,-210.000
1744.4000, -77.615
1744.8000,-210.000
1745.2000, -73.123
1745.6000, -76.418
1746.0000, -74.187
1746.4000,-210.000
1746.8000, -72.531
1747.2000,-210.000
1747.6000,-210.000
1748.0000, -74.633
1748.4000,-210.000
1748.8000,-210.000
1749.2000,-210.000
1749.6000, -73.092
1750.0000,-210.000
1750.4000,-210.000
1750.8000, -73.146
1751.2000, -70.904
1751.6000,-210.000
1752.0000, -77.860
1752.4000, -81.073
1752.8000,-210.000
1753.2000, -77.825
1753.6000,-210.000
1754.0000, -68.830
1754.4000,-210.000
1754.8000, -78.556
1755.2000, -72.498
1755.6000, -72.233
1756.0000, -75.119
1756.4000,-210.000
1756.8000,-210.000
1757.2000, -75.852
1757.6000, -73.924
1758.0000, -80.989
1758.4000, -75.974
1758.8000,-210.000
1759.2000, -78.231
1759.6000,-210.000
1760.0000,-210.000
1760.4000,-210.000
1760.8000,-210.000
1761.2000,-210.000
1761.6000,-210.000
1762.0000, -72.098
1762.4000, -81.600
1762.8000, -72.888
1763.2000, -70.011
1763.6000, -71.889
1764.0000, -74.154
1764.4000,-210.000
1764.8000,-210.000
1765.2000, -69.193
1765.6000, -73.693
1766.0000,-210.000
1766.4000, -79.751
1766.8000, -74.792
1767.2000, -72.028
1767.6000,-210.000
1768.0000, -75.762
1768.4000, -73.680
1768.8000,-210.000
1769.2000, -74.308
1769.6000, -75.376
1770.0000,-210.000
1770.4000, -74.630
1770.8000, -73.520
1771.2000, -76.237
1771.6000, -77.745
1772.0000,-210.000
1772.4000, -86.720
1772.8000,-210.000
1773.2000, -73.369
1773.6000,-210.000
1774.0000, -78.268
1774.4000,-210.000
1774.8000, -77.398
1775.2000, -75.064
1775.6000,-210.000
1776.0000, -74.422
1776.4000,-210.000
1776.8000, -69.795
1777.2000,-210.000
1777.6000,-210.000
1778.0000,-210.000
1778.4000, -76.002
1778.8000, -71.395
1779.2000,-210.000
1779.6000, -80.975
1780.0000, -82.710
1780.4000,-210.000
1780.8000, -76.755
1781.2000,-210.000
1781.6000, -76.551
1782.0000, -75.703
1782.4000,-210.000
1782.8000, -70.356
1783.2000, -72.999
1783.6000, -76.671
1784.0000, -72.032
1784.4000, -77.116
1784.8000,-210.000
1785.2000,-210.000
1785.6000, -70.571
1786.0000, -87.714
1786.4000, -80.508
1786.8000, -75.694
1787.2000, -72.114
1787.6000,-210.000
1788.0000, -75.159
1788.4000, -72.656
1788.8000, -74.598
1789.2000, -75.350
1789.6000,-210.000
1790.0000,-210.000
1790.4000, -73.215
1790.8000, -80.486
1791.2000, -72.303
1791.6000,-210.000
1792.0000, -74.627
1792.4000, -85.993
1792.8000,-210.000
1793.2000,-210.000
1793.6000,-210.000
1794.0000, -85.399
1794.4000, -76.992
1794.8000,-210.000
1795.2000,-210.000
1795.6000, -81.293
1796.0000, -80.237
1796.4000,-210.000
1796.8000, -77.968
1797.2000, -68.839
1797.6000,-210.000
1798.0000, -78.085
1798.4000,-210.000
1798.8000, -77.579
1799.2000,-210.000
1799.6000, -71.791
1800.0000,-210.000
1800.4000,-210.000
1800.8000, -73.267
1801.2000, -70.743
1801.6000,-210.000
1802.0000, -74.130
1802.4000,-210.000
1802.8000,-210.000
1803.2000, -69.953
1803.6000, -76.898
1804.0000, -73.894
1804.4000, -76.885
1804.8000, -74.649
1805.2000, -73.416
1805.6000, -97.512
1806.0000,-210.000
1806.4000, -75.655
1806.8000, -73.859
1807.2000,-210.000
1807.6000, -73.718
1808.0000, -72.634
1808.4000, -74.156
1808.8000, -71.627
1809.2000,-210.000
1809.6000,-210.000
1810.0000, -75.381
1810.4000,-210.000
1810.8000,-210.000
1811.2000,-210.000
1811.6000, -75.492
1812.0000,-210.000
1812.4000,-210.000
1812.8000, -84.230
1813.2000, -77.489
1813.6000,-210.000
1814.0000,-210.000
1814.4000, -78.050
1814.8000, -76.392
1815.2000, -80.811
1815.6000, -77.373
1816.0000,-210.000
1816.4000, -81.563
1816.8000,-210.000
1817.2000, -81.923
1817.6000, -77.396
1818.0000, -74.110
1818.4000, -74.009
1818.8000, -75.435
1819.2000, -78.471
1819.6000, -78.945
1820.0000, -74.724
1820.4000,-210.000
1820.8000,-210.000
1821.2000, -72.813
1821.6000, -85.512
1822.0000, -71.367
1822.4000,-210.000
1822.8000, -71.564
1823.2000, -70.363
1823.6000, -76.288
1824.0000,-210.000
1824.4000, -72.510
1824.8000, -76.325
1825.2000, -74.971
1825.6000, -79.000
1826.0000, -82.216
1826.4000,-210.000
1826.8000, -78.101
1827.2000,-210.000
1827.6000,-210.000
1828.0000,-210.000
1828.4000,-210.000
1828.8000, -75.853
1829.2000, -72.513
1829.6000, -79.841
1830.0000,-210.000
1830.4000, -78.773
1830.8000,-210.000
1831.2000, -72.105
1831.6000, -73.790
1832.0000,-210.000
1832.4000, -74.718
1832.8000,-210.000
1833.2000, -75.220
1833.6000, -73.752
1834.0000, -84.206
1834.4000,-210.000
1834.8000, -73.448
1835.2000, -74.052
1835.6000, -86.972
1836.0000, -75.871
1836.4000, -71.641
1836.8000, -73.639
1837.2000, -69.996
1837.6000, -70.896
1838.0000, -77.284
1838.4000, -73.353
1838.8000, -81.935
1839.2000, -70.164
1839.6000, -71.023
1840.0000, -72.961
1840.4000,-210.000
1840.8000, -72.471
1841.2000, -90.082
1841.6000, -80.706
1842.0000, -78.177
1842.4000, -79.127
1842.8000, -72.116
1843.2000, -78.950
1843.6000, -76.691
1844.0000, -79.948
1844.4000, -73.541
1844.8000,-210.000
1845.2000, -84.341
1845.6000, -77.756
1846.0000, -76.857
1846.4000, -79.279
1846.8000,-210.000
1847.2000, -83.652
1847.6000,-210.000
1848.0000,-210.000
1848.4000, -84.753
1848.8000, -72.751
1849.2000,-210.000
1849.6000, -74.549
1850.0000, -73.524
1850.4000, -75.181
1850.8000, -84.622
1851.2000, -77.880
1851.6000,-210.000
1852.0000, -81.303
1852.4000,-210.000
1852.8000,-210.000
1853.2000, -74.185
1853.6000,-210.000
1854.0000, -75.184
1854.4000, -82.022
1854.8000, -71.143
1855.2000, -74.855
1855.6000, -75.161
1856.0000,-210.000
1856.4000,-210.000
1856.8000, -80.561
1857.2000, -73.841
1857.6000, -71.590
1858.0000, -74.220
1858.4000, -72.630
1858.8000, -74.384
1859.2000, -75.396
1859.6000, -73.236
1860.0000, -84.798
1860.4000, -89.401
1860.8000, -71.133
1861.2000, -70.592
1861.6000, -73.588
1862.0000,-210.000
1862.4000,-210.000
1862.8000, -70.664
1863.2000, -84.787
1863.6000,-210.000
1864.0000, -73.487
1864.4000,-210.000
1864.8000, -76.299
1865.2000, -78.072
1865.6000, -70.272
1866.0000, -75.341
1866.4000, -74.651
1866.8000,-210.000
1867.2000, -69.814
1867.6000, -72.288
1868.0000,-210.000
1868.4000, -70.095
1868.8000,-210.000
1869.2000, -88.822
1869.6000,-210.000
1870.0000,-210.000
1870.4000, -70.507
1870.8000, -86.331
1871.2000, -73.148
1871.6000, -72.597
1872.0000, -73.129
1872.4000, -71.221
1872.8000, -69.307
1873.2000, -71.793
1873.6000, -73.429
1874.0000, -68.883
1874.4000, -69.337
1874.8000, -71.270
1875.2000, -73.691
1875.6000, -71.605
1876.0000, -70.713
1876.4000, -78.395
1876.8000, -73.110
1877.2000, -70.084
1877.6000, -72.046
1878.0000, -70.261
1878.4000, -71.647
1878.8000,-210.000
1879.2000, -74.383
1879.6000,-210.000
1880.0000, -73.322
1880.4000, -71.932
1880.8000, -76.070
1881.2000, -83.568
1881.6000, -73.348
1882.0000, -76.696
1882.4000, -75.640
1882.8000,-210.000
1883.2000, -71.793
1883.6000, -69.775
1884.0000, -69.697
1884.4000, -76.169
1884.8000, -71.930
1885.2000, -74.519
1885.6000, -75.105
1886.0000, -74.156
1886.4000,-210.000
1886.8000, -74.374
1887.2000, -87.687
1887.6000, -71.255
1888.0000,-210.000
1888.4000, -87.001
1888.8000, -84.303
1889.2000, -82.678
1889.6000, -71.763
1890.0000, -71.761
1890.4000, -73.299
1890.8000,-210.000
1891.2000, -78.495
1891.6000, -73.008
1892.0000, -74.473
1892.4000, -78.306
1892.8000, -75.154
1893.2000,-210.000
1893.6000, -70.092
1894.0000,-210.000
1894.4000,-210.000
1894.8000, -72.819
1895.2000, -70.877
1895.6000,-210.000
1896.0000, -72.463
1896.4000, -72.481
1896.8000, -86.665
1897.2000,-210.000
1897.6000, -71.492
1898.0000, -79.082
1898.4000, -70.657
1898.8000, -84.213
1899.2000, -89.587
1899.6000, -83.539
1900.0000, -73.506
1900.4000, -75.768
1900.8000, -73.670
1901.2000, -70.121
1901.6000, -75.200
1902.0000,-210.000
1902.4000, -77.717
1902.8000, -72.634
1903.2000,-210.000
1903.6000, -70.674
1904.0000, -74.115
1904.4000, -70.172
1904.8000, -73.851
1905.2000, -73.514
1905.6000,-210.000
1906.0000,-210.000
1906.4000,-210.000
1906.8000, -73.873
1907.2000, -79.389
1907.6000, -80.029
1908.0000, -72.805
1908.4000, -72.931
1908.8000, -71.355
1909.2000, -74.490
1909.6000,-210.000
1910.0000, -72.019
1910.4000, -73.658
1910.8000, -77.006
1911.2000, -73.345
1911.6000, -80.915
1912.0000, -74.203
1912.4000, -71.896
1912.8000, -78.741
1913.2000, -70.551
1913.6000, -73.189
1914.0000,-210.000
1914.4000, -70.994
1914.8000,-210.000
1915.2000, -79.564
1915.6000, -70.857
1916.0000,-210.000
1916.4000, -74.708
1916.8000, -73.187
1917.2000, -73.450
1917.6000, -83.690
1918.0000, -74.165
1918.4000,-210.000
1918.8000, -78.220
1919.2000, -78.171
1919.6000, -71.930
1920.0000,-210.000
1920.4000, -70.648
1920.8000, -73.731
1921.2000, -76.670
1921.6000, -75.751
1922.0000, -72.260
1922.4000, -71.971
1922.8000, -73.272
1923.2000, -70.248
1923.6000, -71.671
1924.0000, -78.418
1924.4000, -76.523
1924.8000, -73.917
1925.2000, -70.911
1925.6000,-210.000
1926.0000, -73.106
1926.4000, -72.370
1926.8000, -76.888
1927.2000, -72.303
1927.6000, -75.070
1928.0000,-210.000
1928.4000, -78.743
1928.8000,-210.000
1929.2000, -72.664
1929.6000, -74.512
1930.0000, -69.583
1930.4000, -78.236
1930.8000, -77.641
1931.2000,-210.000
1931.6000, -79.817
1932.0000, -78.294
1932.4000,-210.000
1932.8000, -71.670
1933.2000, -79.641
1933.6000,-210.000
1934.0000, -76.189
1934.4000, -79.309
1934.8000, -75.011
1935.2000, -84.013
1935.6000,-210.000
1936.0000,-210.000
1936.4000, -71.455
1936.8000, -74.243
1937.2000, -74.417
1937.6000, -78.154
1938.0000, -72.209
1938.4000, -74.621
1938.8000,-210.000
1939.2000, -71.879
1939.6000,-210.000
1940.0000, -77.841
1940.4000,-210.000
1940.8000, -71.152
1941.2000, -75.542
1941.6000, -75.229
1942.0000,-210.000
1942.4000,-210.000
1942.8000, -72.863
1943.2000,-210.000
1943.6000, -73.686
1944.0000,-210.000
1944.4000,-210.000
1944.8000,-210.000
1945.2000, -71.723
1945.6000,-210.000
1946.0000, -70.856
1946.4000,-210.000
1946.8000, -72.717
1947.2000, -74.819
1947.6000, -76.314
1948.0000,-210.000
1948.4000, -75.826
1948.8000, -70.409
1949.2000, -73.597
1949.6000, -72.673
1950.0000, -80.684
1950.4000, -74.307
1950.8000, -72.696
1951.2000, -71.600
1951.6000,-210.000
1952.0000,-210.000
1952.4000,-210.000
1952.8000, -71.737
1953.2000, -79.116
1953.6000, -76.749
1954.0000, -74.820
1954.4000, -78.385
1954.8000, -81.759
1955.2000, -71.834
1955.6000, -75.454
1956.0000, -76.924
1956.4000,-210.000
1956.8000,-210.000
1957.2000, -77.743
1957.6000, -77.951
1958.0000,-210.000
1958.4000, -87.608
1958.8000, -73.170
1959.2000,-210.000
1959.6000,-210.000
1960.0000, -70.988
1960.4000,-210.000
1960.8000,-210.000
1961.2000, -71.851
1961.6000, -72.265
1962.0000,-210.000
1962.4000, -72.485
1962.8000,-210.000
1963.2000,-210.000
1963.6000, -74.810
1964.0000, -84.411
1964.4000,-210.000
1964.8000, -71.830
1965.2000, -85.530
1965.6000, -72.988
1966.0000,-210.000
1966.4000, -83.091
1966.8000,-210.000
1967.2000,-210.000
1967.6000, -77.670
1968.0000,-210.000
1968.4000, -75.311
1968.8000, -75.871
1969.2000,-210.000
1969.6000, -92.238
1970.0000, -76.788
1970.4000, -83.696
1970.8000,-210.000
1971.2000,-210.000
1971.6000, -71.338
1972.0000, -71.125
1972.4000, -75.186
1972.8000, -80.910
1973.2000,-210.000
1973.6000,-210.000
1974.0000,-210.000
1974.4000,-210.000
1974.8000, -81.382
1975.2000, -70.626
1975.6000, -81.303
1976.0000, -71.349
1976.4000, -82.281
1976.8000, -96.102
1977.2000, -78.521
1977.6000, -74.246
1978.0000, -72.558
1978.4000,-210.000
1978.8000,-210.000
1979.2000, -69.839
1979.6000,-210.000
1980.0000,-210.000
1980.4000, -74.761
1980.8000,-210.000
1981.2000, -75.174
1981.6000,-210.000
1982.0000,-210.000
1982.4000, -79.531
1982.8000, -71.270
1983.2000,-210.000
1983.6000, -74.762
1984.0000, -72.833
1984.4000, -78.704
1984.8000, -83.018
1985.2000, -75.064
1985.6000, -73.435
1986.0000,-210.000
1986.4000, -74.687
1986.8000, -71.271
1987.2000, -80.413
1987.6000, -80.771
1988.0000, -72.731
1988.4000,-210.000
1988.8000,-210.000
1989.2000,-210.000
1989.6000, -72.964
1990.0000,-210.000
1990.4000, -77.073
1990.8000,-210.000
1991.2000, -77.376
1991.6000, -76.793
1992.0000, -73.643
1992.4000,-210.000
1992.8000, -71.377
1993.2000, -70.650
1993.6000,-210.000
1994.0000, -73.785
1994.4000,-210.000
1994.8000, -77.795
1995.2000,-210.000
1995.6000, -76.378
1996.0000, -73.213
1996.4000, -74.146
1996.8000, -72.353
1997.2000, -73.389
1997.6000, -81.167
1998.0000, -77.907
1998.4000,-210.000
1998.8000,-210.000
1999.2000,-210.000
1999.6000, -76.339
2000.0000, -72.241
2000.4000,-210.000
2000.8000, -75.234
2001.2000, -82.260
2001.6000, -91.618
2002.0000, -78.275
2002.4000, -73.507
2002.8000,-210.000
2003.2000, -70.527
2003.6000, -81.526
2004.0000,-210.000
2004.4000,-210.000
2004.8000, -80.422
2005.2000, -74.682
2005.6000, -74.349
2006.0000,-210.000
2006.4000, -90.476
2006.8000, -69.412
2007.2000, -88.927
2007.6000, -72.483
2008.0000, -76.801
2008.4000,-210.000
2008.8000, -76.383
2009.2000, -73.162
2009.6000, -70.480
2010.0000, -74.177
2010.4000, -74.056
2010.8000,-210.000
2011.2000, -74.816
2011.6000, -79.680
2012.0000, -83.711
2012.4000,-210.000
2012.8000, -73.238
2013.2000,-210.000
2013.6000, -76.890
2014.0000, -78.186
2014.4000,-210.000
2014.8000,-210.000
2015.2000, -76.661
2015.6000, -83.659
2016.0000, -75.629
2016.4000,-210.000
2016.8000, -73.808
2017.2000, -73.637
2017.6000, -69.554
2018.0000, -75.923
2018.4000,-210.000
2018.8000, -75.638
2019.2000, -76.936
2019.6000, -79.703
2020.0000,-210.000
2020.4000, -72.268
2020.8000, -75.890
2021.2000,-210.000
2021.6000, -72.969
2022.0000,-210.000
2022.4000,-210.000
2022.8000, -71.149
2023.2000, -75.199
2023.6000,-210.000
2024.0000, -70.600
2024.4000, -71.555
2024.8000,-210.000
2025.2000, -73.398
2025.6000,-210.000
2026.0000, -76.423
2026.4000, -71.332
2026.8000,-210.000
2027.2000,-210.000
2027.6000, -78.188
2028.0000,-210.000
2028.4000, -81.364
2028.8000, -75.189
2029.2000,-210.000
2029.6000,-210.000
2030.0000, -81.672
2030.4000,-210.000
2030.8000, -70.644
2031.2000,-210.000
2031.6000, -72.716
2032.0000, -73.612
2032.4000, -78.954
2032.8000,-210.000
2033.2000, -75.932
2033.6000, -75.308
2034.0000, -78.883
2034.4000, -70.315
2034.8000,-210.000
2035.2000, -81.851
2035.6000, -76.152
2036.0000,-210.000
2036.4000, -73.574
2036.8000, -75.551
2037.2000, -73.358
2037.6000, -79.414
2038.0000, -74.068
2038.4000,-210.000
2038.8000, -73.089
2039.2000, -82.449
2039.6000, -83.776
2040.0000, -84.758
2040.4000, -73.408
2040.8000, -77.868
2041.2000, -76.751
2041.6000, -75.114
2042.0000, -72.471
2042.4000,-210.000
2042.8000, -71.871
2043.2000, -74.143
2043.6000, -74.138
2044.0000,-210.000
2044.4000,-210.000
2044.8000, -81.139
2045.2000,-210.000
2045.6000, -75.217
2046.0000, -77.315
2046.4000, -75.552
2046.8000, -74.818
2047.2000, -84.078
2047.6000, -74.265
2048.0000,-210.000
2048.4000,-210.000
2048.8000, -77.577
2049.2000, -74.222
2049.6000,-210.000
2050.0000, -77.688
2050.4000, -77.071
2050.8000,-210.000
2051.2000,-210.000
2051.6000, -76.901
2052.0000,-210.000
2052.4000,-210.000
2052.8000,-210.000
2053.2000, -75.255
2053.6000, -72.151
2054.0000,-210.000
2054.4000, -76.889
2054.8000, -77.067
2055.2000,-210.000
2055.6000,-210.000
2056.0000, -73.514
2056.4000, -71.599
2056.8000, -72.061
2057.2000, -70.454
2057.6000, -72.624
2058.0000, -76.953
2058.4000,-210.000
2058.8000,-210.000
2059.2000, -84.766
2059.6000, -81.371
2060.0000, -74.200
2060.4000,-210.000
2060.8000,-210.000
2061.2000,-210.000
2061.6000, -76.387
2062.0000, -72.891
2062.4000, -80.672
2062.8000, -71.907
2063.2000,-210.000
2063.6000,-210.000
2064.0000, -76.436
2064.4000, -71.774
2064.8000,-210.000
2065.2000, -77.579
2065.6000, -77.973
2066.0000, -83.380
2066.4000, -77.992
2066.8000, -77.565
2067.2000, -81.098
2067.6000,-210.000
2068.0000, -77.185
2068.4000, -77.301
2068.8000, -78.807
2069.2000, -83.644
2069.6000, -71.012
2070.0000,-210.000
2070.4000, -72.762
2070.8000, -72.713
2071.2000, -74.023
2071.6000,-210.000
2072.0000, -72.481
2072.4000,-210.000
2072.8000, -79.107
2073.2000, -83.275
2073.6000, -72.419
2074.0000,-210.000
2074.4000, -70.438
2074.8000, -79.578
2075.2000, -73.228
2075.6000, -74.487
2076.0000, -82.455
2076.4000,-210.000
2076.8000, -73.247
2077.2000,-210.000
2077.6000, -76.398
2078.0000, -73.974
2078.4000, -82.010
2078.8000, -70.604
2079.2000, -71.948
2079.6000,-210.000
2080.0000, -72.778
2080.4000, -77.430
2080.8000, -71.058
2081.2000, -75.354
2081.6000, -75.940
2082.0000, -72.298
2082.4000,-210.000
2082.8000,-210.000
2083.2000,-210.000
2083.6000, -78.297
2084.0000, -72.347
2084.4000, -75.289
2084.8000,-210.000
2085.2000, -72.124
2085.6000, -76.940
2086.0000, -73.372
2086.4000, -70.914
2086.8000, -75.542
2087.2000, -78.234
2087.6000, -74.714
2088.0000,-210.000
2088.4000, -71.711
2088.8000, -78.397
2089.2000,-210.000
2089.6000, -77.004
2090.0000,-210.000
2090.4000,-210.000
2090.8000, -77.398
2091.2000,-210.000
2091.6000, -84.846
2092.0000, -73.966
2092.4000, -71.867
2092.8000,-210.000
2093.2000, -77.073
2093.6000, -73.741
2094.0000, -71.235
2094.4000,-210.000
2094.8000,-210.000
2095.2000, -74.183
2095.6000, -75.704
2096.0000,-210.000
2096.4000,-210.000
2096.8000, -74.693
2097.2000, -78.266
2097.6000,-210.000
2098.0000, -79.995
2098.4000,-210.000
2098.8000, -81.202
2099.2000, -72.489
2099.6000,-210.000
2100.0000, -73.233
2100.4000,-210.000
2100.8000, -78.838
2101.2000, -77.803
2101.6000, -77.673
2102.0000, -76.266
2102.4000,-210.000
2102.8000, -98.055
2103.2000,-210.000
2103.6000, -81.592
2104.0000, -74.851
2104.4000,-210.000
2104.8000, -76.104
2105.2000, -75.387
2105.6000,-210.000
2106.0000,-210.000
2106.4000, -74.907
2106.8000,-210.000
2107.2000, -72.573
2107.6000,-210.000
2108.0000, -70.570
2108.4000, -76.210
2108.8000, -73.240
2109.2000, -75.200
2109.6000, -71.566
2110.0000,-210.000
2110.4000, -72.594
2110.8000,-210.000
2111.2000, -78.772
2111.6000,-210.000
2112.0000, -72.546
2112.4000, -74.446
2112.8000, -74.065
2113.2000, -73.096
2113.6000, -73.267
2114.0000, -78.099
2114.4000,-210.000
2114.8000,-210.000
2115.2000,-210.000
2115.6000,-210.000
2116.0000, -73.914
2116.4000,-210.000
2116.8000, -75.216
2117.2000, -74.405
2117.6000, -78.656
2118.0000,-210.000
2118.4000, -76.395
2118.8000, -77.403
2119.2000, -77.712
2119.6000, -77.667
2120.0000,-210.000
2120.4000, -73.612
2120.8000,-210.000
2121.2000,-210.000
2121.6000,-210.000
2122.0000, -89.767
2122.4000,-210.000
2122.8000,-210.000
2123.2000, -81.811
2123.6000, -72.033
2124.0000,-210.000
2124.4000, -70.760
2124.8000, -79.567
2125.2000, -75.325
2125.6000, -78.740
2126.0000, -80.903
2126.4000, -79.254
2126.8000, -74.206
2127.2000, -77.570
2127.6000,-210.000
2128.0000, -75.613
2128.4000, -72.925
2128.8000,-210.000
2129.2000, -74.456
2129.6000, -72.620
2130.0000, -73.638
2130.4000, -78.743
2130.8000, -76.288
2131.2000, -74.402
2131.6000, -71.328
2132.0000,-210.000
2132.4000, -75.981
2132.8000, -71.561
2133.2000, -74.716
2133.6000, -73.772
2134.0000, -76.408
2134.4000,-210.000
2134.8000,-210.000
2135.2000, -75.892
2135.6000, -78.956
2136.0000, -81.613
2136.4000, -81.383
2136.8000, -71.659
2137.2000,-210.000
2137.6000, -78.829
2138.0000, -79.981
2138.4000, -70.247
2138.8000,-210.000
2139.2000, -90.354
2139.6000,-210.000
2140.0000, -88.320
2140.4000, -75.972
2140.8000, -72.008
2141.2000,-210.000
2141.6000, -73.488
2142.0000, -71.873
2142.4000,-210.000
2142.8000, -72.606
2143.2000, -72.717
2143.6000, -71.674
2144.0000, -74.331
2144.4000, -73.434
2144.8000, -76.180
2145.2000, -80.651
2145.6000, -75.451
2146.0000, -75.609
2146.4000, -71.033
2146.8000,-210.000
2147.2000, -76.169
2147.6000,-210.000
2148.0000,-210.000
2148.4000,-210.000
2148.8000, -70.589
2149.2000,-210.000
2149.6000, -79.264
2150.0000,-210.000
2150.4000, -80.489
2150.8000, -78.557
2151.2000,-210.000
2151.6000, -76.332
2152.0000, -73.073
2152.4000, -73.115
2152.8000, -72.689
2153.2000, -71.326
2153.6000,-210.000
2154.0000,-210.000
2154.4000, -81.664
2154.8000,-210.000
2155.2000, -76.050
2155.6000, -76.292
2156.0000, -80.154
2156.4000,-210.000
2156.8000,-210.000
2157.2000, -81.339
2157.6000, -74.563
2158.0000, -82.036
2158.4000, -74.746
2158.8000, -71.200
2159.2000,-210.000
2159.6000, -70.939
2160.0000, -73.090
2160.4000,-210.000
2160.8000, -77.209
2161.2000,-210.000
2161.6000, -72.739
2162.0000,-210.000
2162.4000, -72.418
2162.8000, -71.071
2163.2000, -90.393
2163.6000,-210.000
2164.0000, -75.696
2164.4000, -77.386
2164.8000, -88.981
2165.2000,-210.000
2165.6000, -71.681
2166.0000, -74.707
2166.4000,-210.000
2166.8000,-210.000
2167.2000, -71.720
2167.6000,-210.000
2168.0000, -73.335
2168.4000,-210.000
2168.8000,-210.000
2169.2000, -74.311
2169.6000, -77.764
2170.0000, -84.403
2170.4000, -76.111
2170.8000, -71.002
2171.2000, -80.422
2171.6000,-210.000
2172.0000,-210.000
2172.4000,-210.000
2172.8000, -75.557
2173.2000,-210.000
2173.6000, -75.264
2174.0000,-210.000
2174.4000,-210.000
2174.8000, -73.345
2175.2000, -85.168
2175.6000,-210.000
2176.0000, -74.323
2176.4000, -87.891
2176.8000, -72.747
2177.2000,-210.000
2177.6000,-210.000
2178.0000, -78.866
2178.4000, -75.735
2178.8000, -73.286
2179.2000,-210.000
2179.6000, -76.842
2180.0000, -83.207
2180.4000, -73.816
2180.8000, -72.887
2181.2000, -71.984
2181.6000, -75.631
2182.0000,-210.000
2182.4000,-210.000
2182.8000,-210.000
2183.2000,-210.000
2183.6000, -71.719
2184.0000,-210.000
2184.4000,-210.000
2184.8000,-210.000
2185.2000, -72.747
2185.6000,-210.000
2186.0000, -72.409
2186.4000, -77.916
2186.8000,-210.000
2187.2000, -82.073
2187.6000,-210.000
2188.0000,-210.000
2188.4000, -87.614
2188.8000, -77.664
2189.2000,-210.000
2189.6000, -77.104
2190.0000,-210.000
2190.4000, -72.088
2190.8000,-210.000
2191.2000, -96.861
2191.6000, -76.194
2192.0000, -78.150
2192.4000,-210.000
2192.8000,-210.000
2193.2000, -71.677
2193.6000,-210.000
2194.0000, -73.622
2194.4000, -71.832
2194.8000, -74.658
2195.2000,-210.000
2195.6000,-210.000
2196.0000, -74.492
2196.4000,-210.000
2196.8000,-210.000
2197.2000, -82.361
2197.6000, -72.078
2198.0000, -76.647
2198.4000, -76.656
2198.8000,-210.000
2199.2000, -72.582
2199.6000, -82.427
2200.0000, -91.932
2200.4000,-210.000
2200.8000, -70.547
2201.2000, -76.156
2201.6000, -75.205
2202.0000, -76.391
2202.4000,-210.000
2202.8000, -77.333
2203.2000, -75.687
2203.6000, -76.899
2204.0000, -71.925
2204.4000,-210.000
2204.8000, -74.136
2205.2000, -76.659
2205.6000, -75.596
2206.0000,-210.000
2206.4000,-210.000
2206.8000, -72.931
2207.2000, -74.859
2207.6000,-210.000
2208.0000, -75.531
2208.4000,-210.000
2208.8000, -87.440
2209.2000, -73.767
2209.6000,-210.000
2210.0000,-210.000
2210.4000, -77.720
2210.8000, -78.222
2211.2000, -72.534
2211.6000,-210.000
2212.0000,-210.000
2212.4000,-210.000
2212.8000,-210.000
2213.2000, -73.171
2213.6000, -78.090
2214.0000, -76.939
2214.4000, -73.304
2214.8000, -79.488
2215.2000,-210.000
2215.6000,-210.000
2216.0000,-210.000
2216.4000, -76.207
2216.8000, -73.975
2217.2000, -72.702
2217.6000, -89.096
2218.0000, -77.675
2218.4000, -73.351
2218.8000,-210.000
2219.2000, -77.443
2219.6000,-210.000
2220.0000, -93.242
2220.4000,-210.000
2220.8000, -71.578
2221.2000,-210.000
2221.6000, -79.408
2222.0000, -74.785
2222.4000,-210.000
2222.8000,-210.000
2223.2000, -82.076
2223.6000, -72.569
2224.0000,-210.000
2224.4000,-210.000
2224.8000, -81.725
2225.2000, -74.353
2225.6000, -75.412
2226.0000, -74.564
2226.4000,-210.000
2226.8000, -75.964
2227.2000, -77.580
2227.6000, -79.607
2228.0000, -71.461
2228.4000, -72.086
2228.8000, -74.045
2229.2000, -72.561
2229.6000, -82.430
2230.0000,-210.000
2230.4000,-210.000
2230.8000,-210.000
2231.2000, -78.940
2231.6000,-210.000
2232.0000, -79.433
2232.4000,-210.000
2232.8000,-210.000
2233.2000, -74.492
2233.6000, -74.379
2234.0000,-210.000
2234.4000, -71.821
2234.8000, -70.346
2235.2000,-210.000
2235.6000, -69.340
2236.0000, -82.638
2236.4000, -85.143
2236.8000, -71.223
2237.2000,-210.000
2237.6000,-210.000
2238.0000, -72.030
2238.4000,-210.000
2238.8000,-210.000
2239.2000, -86.823
2239.6000, -73.887
2240.0000, -77.872
2240.4000, -76.662
2240.8000, -88.915
2241.2000,-210.000
2241.6000, -72.745
2242.0000, -73.616
2242.4000, -99.343
2242.8000, -76.684
2243.2000, -76.329
2243.6000,-210.000
2244.0000, -69.415
2244.4000, -70.968
2244.8000, -83.051
2245.2000, -81.440
2245.6000,-210.000
2246.0000, -74.751
2246.4000, -79.707
2246.8000, -79.984
2247.2000, -79.285
2247.6000,-210.000
2248.0000, -87.156
2248.4000,-210.000
2248.8000, -77.965
2249.2000, -81.393
2249.6000,-210.000
2250.0000, -74.636
2250.4000,-210.000
2250.8000,-210.000
2251.2000,-210.000
2251.6000, -73.014
2252.0000, -72.110
2252.4000,-210.000
2252.8000,-210.000
2253.2000, -69.744
2253.6000, -72.263
2254.0000, -72.593
2254.4000,-210.000
2254.8000,-210.000
2255.2000, -74.749
2255.6000,-210.000
2256.0000,-210.000
2256.4000, -76.040
2256.8000,-210.000
2257.2000, -72.613
2257.6000, -77.070
2258.0000,-210.000
2258.4000, -77.787
2258.8000,-210.000
2259.2000,-210.000
2259.6000, -73.775
2260.0000,-210.000
2260.4000, -78.255
2260.8000, -71.625
2261.2000,-210.000
2261.6000, -71.887
2262.0000, -78.811
2262.4000, -80.040
2262.8000, -70.910
2263.2000,-210.000
2263.6000, -72.626
2264.0000, -71.067
2264.4000,-210.000
2264.8000, -82.927
2265.2000, -76.542
2265.6000,-210.000
2266.0000, -75.086
2266.4000, -72.350
2266.8000,-210.000
2267.2000, -74.287
2267.6000, -82.333
2268.0000,-210.000
2268.4000,-210.000
2268.8000, -84.679
2269.2000, -80.326
2269.6000, -73.396
2270.0000,-210.000
2270.4000, -80.459
2270.8000, -71.750
2271.2000, -73.766
2271.6000,-210.000
2272.0000,-210.000
2272.4000, -69.482
2272.8000, -77.572
2273.2000,-210.000
2273.6000,-210.000
2274.0000, -78.177
2274.4000, -70.566
2274.8000,-210.000
2275.2000, -70.100
2275.6000, -82.916
2276.0000,-210.000
2276.4000, -75.208
2276.8000,-210.000
2277.2000, -75.230
2277.6000, -72.780
2278.0000, -73.904
2278.4000,-210.000
2278.8000, -83.479
2279.2000, -77.788
2279.6000, -70.624
2280.0000, -73.935
2280.4000, -76.469
2280.8000, -73.988
2281.2000,-210.000
2281.6000, -78.452
2282.0000, -74.255
2282.4000,-210.000
2282.8000, -70.275
2283.2000, -81.043
2283.6000, -75.629
2284.0000, -87.520
2284.4000,-210.000
2284.8000, -74.897
2285.2000,-210.000
2285.6000,-210.000
2286.0000, -74.214
2286.4000,-210.000
2286.8000, -72.602
2287.2000, -73.758
2287.6000, -73.120
2288.0000, -72.108
2288.4000, -73.333
2288.8000, -72.702
2289.2000, -75.403
2289.6000, -93.169
2290.0000,-210.000
2290.4000, -72.959
2290.8000, -71.439
2291.2000, -70.214
2291.6000,-210.000
2292.0000,-210.000
2292.4000, -80.108
2292.8000,-210.000
2293.2000, -70.749
2293.6000,-210.000
2294.0000, -78.497
2294.4000, -76.060
2294.8000, -86.911
2295.2000, -81.173
2295.6000, -71.099
2296.0000, -75.124
2296.4000, -88.854
2296.8000,-210.000
2297.2000, -78.699
2297.6000,-210.000
2298.0000, -81.597
2298.4000, -78.495
2298.8000, -79.454
2299.2000, -77.851
2299.6000,-210.000
2300.0000,-210.000
