75ECSV 	
// AQ6375E OPTICAL SPECTRUM ANALYZER //
40
"CTRWL",1650.000000
"SPAN",1300.000000
"START WL",1000.000000
"STOP WL",2300.000000
"WLFREQ", 0
"REFL",-32.1
"LSCL",10.0
"RESLN",2.000
"CUSTOM RES",0
"AVG",   1
"SMPLAUTO",      0
"SMPL",       3251
"SMPLINTVL",0.4000
"NORMAL"
"SENS LEVEL",-67.0
"MEAS"
"LSUNT",0
"NMSKH","OFF"
"RESCOR",0
"SMOOTH",0
"MEASWL",1
"MODELNAME",AQ6375E
"NEBWCAL0",    0
"NEBWCAL1",    0
"NEBWCALWL",   0
"RESCAL0_0",   9977
"RESCAL0_1",      0
"RESCAL0_2",      0
"RESCAL1_0",   9977
"RESCAL1_1",      0
"RESCAL1_2",      0









"[TRACE DATA]"
1000.0000, -64.124
1000.4000,-210.000
1000.8000,-210.000
1001.2000,-210.000
1001.6000,-210.000
1002.0000,-210.000
1002.4000, -63.417
1002.8000, -62.484
1003.2000,-210.000
1003.6000, -58.991
1004.0000,-210.000
1004.4000,-210.000
1004.8000,-210.000
1005.2000, -61.781
1005.6000,-210.000
1006.0000, -62.863
1006.4000, -69.155
1006.8000,-210.000
1007.2000, -65.864
1007.6000,-210.000
1008.0000, -65.444
1008.4000, -65.837
1008.8000,-210.000
1009.2000, -69.990
1009.6000, -61.445
1010.0000,-210.000
1010.4000,-210.000
1010.8000, -66.220
1011.2000, -77.071
1011.6000,-210.000
1012.0000, -60.239
1012.4000, -62.148
1012.8000, -66.739
1013.2000,-210.000
1013.6000, -60.167
1014.0000,-210.000
1014.4000,-210.000
1014.8000, -62.851
1015.2000,-210.000
1015.6000,-210.000
1016.0000,-210.000
1016.4000, -59.076
1016.8000, -61.403
1017.2000,-210.000
1017.6000, -64.728
1018.0000,-210.000
1018.4000, -62.052
1018.8000,-210.000
1019.2000, -67.819
1019.6000, -61.918
1020.0000,-210.000
1020.4000,-210.000
1020.8000, -63.897
1021.2000,-210.000
1021.6000, -61.444
1022.0000, -61.949
1022.4000,-210.000
1022.8000, -62.910
1023.2000, -66.859
1023.6000,-210.000
1024.0000, -64.614
1024.4000,-210.000
1024.8000, -64.981
1025.2000,-210.000
1025.6000, -74.851
1026.0000, -61.416
1026.4000, -64.153
1026.8000, -65.305
1027.2000,-210.000
1027.6000, -65.313
1028.0000,-210.000
1028.4000, -61.737
1028.8000,-210.000
1029.2000, -63.350
1029.6000, -74.669
1030.0000, -62.812
1030.4000, -62.091
1030.8000,-210.000
1031.2000, -62.823
1031.6000, -59.503
1032.0000, -60.472
1032.4000, -76.911
1032.8000, -73.324
1033.2000,-210.000
1033.6000,-210.000
1034.0000, -76.419
1034.4000,-210.000
1034.8000, -63.126
1035.2000, -65.635
1035.6000,-210.000
1036.0000, -69.487
1036.4000, -65.536
1036.8000,-210.000
1037.2000, -60.939
1037.6000,-210.000
1038.0000, -69.641
1038.4000,-210.000
1038.8000,-210.000
1039.2000, -69.391
1039.6000, -63.429
1040.0000,-210.000
1040.4000, -60.048
1040.8000,-210.000
1041.2000,-210.000
1041.6000, -67.505
1042.0000, -69.420
1042.4000, -70.500
1042.8000, -62.353
1043.2000, -67.181
1043.6000,-210.000
1044.0000, -62.165
1044.4000, -68.889
1044.8000, -61.841
1045.2000,-210.000
1045.6000,-210.000
1046.0000,-210.000
1046.4000,-210.000
1046.8000,-210.000
1047.2000, -78.043
1047.6000, -68.790
1048.0000, -64.219
1048.4000,-210.000
1048.8000, -65.803
1049.2000, -68.520
1049.6000, -65.544
1050.0000,-210.000
1050.4000, -68.398
1050.8000, -68.245
1051.2000,-210.000
1051.6000,-210.000
1052.0000,-210.000
1052.4000,-210.000
1052.8000,-210.000
1053.2000,-210.000
1053.6000,-210.000
1054.0000, -74.860
1054.4000,-210.000
1054.8000,-210.000
1055.2000,-210.000
1055.6000,-210.000
1056.0000, -60.746
1056.4000, -68.045
1056.8000, -60.791
1057.2000, -64.108
1057.6000,-210.000
1058.0000,-210.000
1058.4000, -60.196
1058.8000,-210.000
1059.2000, -68.059
1059.6000,-210.000
1060.0000,-210.000
1060.4000, -76.837
1060.8000,-210.000
1061.2000, -72.736
1061.6000, -63.900
1062.0000,-210.000
1062.4000,-210.000
1062.8000,-210.000
1063.2000,-210.000
1063.6000, -73.791
1064.0000, -68.854
1064.4000, -79.259
1064.8000, -69.473
1065.2000, -61.806
1065.6000,-210.000
1066.0000,-210.000
1066.4000, -65.417
1066.8000, -71.395
1067.2000, -70.433
1067.6000,-210.000
1068.0000,-210.000
1068.4000, -66.156
1068.8000, -63.683
1069.2000,-210.000
1069.6000,-210.000
1070.0000, -69.155
1070.4000, -61.735
1070.8000, -64.929
1071.2000,-210.000
1071.6000, -68.893
1072.0000,-210.000
1072.4000,-210.000
1072.8000, -61.849
1073.2000,-210.000
1073.6000, -65.736
1074.0000, -66.775
1074.4000,-210.000
1074.8000, -65.118
1075.2000,-210.000
1075.6000, -62.048
1076.0000, -64.074
1076.4000,-210.000
1076.8000,-210.000
1077.2000, -65.336
1077.6000,-210.000
1078.0000,-210.000
1078.4000, -64.941
1078.8000, -66.338
1079.2000,-210.000
1079.6000,-210.000
1080.0000, -67.417
1080.4000,-210.000
1080.8000, -62.041
1081.2000, -64.704
1081.6000, -67.154
1082.0000,-210.000
1082.4000, -66.665
1082.8000,-210.000
1083.2000,-210.000
1083.6000, -70.086
1084.0000, -59.252
1084.4000,-210.000
1084.8000,-210.000
1085.2000, -63.565
1085.6000, -85.403
1086.0000,-210.000
1086.4000,-210.000
1086.8000, -65.010
1087.2000, -71.737
1087.6000,-210.000
1088.0000, -63.389
1088.4000, -62.268
1088.8000,-210.000
1089.2000, -67.629
1089.6000,-210.000
1090.0000, -65.624
1090.4000,-210.000
1090.8000,-210.000
1091.2000, -84.603
1091.6000, -76.201
1092.0000,-210.000
1092.4000, -66.352
1092.8000, -66.324
1093.2000, -61.277
1093.6000, -66.853
1094.0000, -68.143
1094.4000,-210.000
1094.8000,-210.000
1095.2000, -68.668
1095.6000, -69.979
1096.0000,-210.000
1096.4000, -68.189
1096.8000, -67.888
1097.2000,-210.000
1097.6000, -82.213
1098.0000,-210.000
1098.4000, -60.985
1098.8000, -64.538
1099.2000,-210.000
1099.6000,-210.000
1100.0000,-210.000
1100.4000,-210.000
1100.8000, -65.223
1101.2000,-210.000
1101.6000, -75.182
1102.0000,-210.000
1102.4000,-210.000
1102.8000, -64.941
1103.2000, -65.050
1103.6000, -81.845
1104.0000, -65.551
1104.4000,-210.000
1104.8000, -62.699
1105.2000, -63.309
1105.6000, -66.004
1106.0000,-210.000
1106.4000, -74.415
1106.8000,-210.000
1107.2000, -63.431
1107.6000, -74.030
1108.0000,-210.000
1108.4000, -64.046
1108.8000, -76.634
1109.2000,-210.000
1109.6000, -65.136
1110.0000, -64.322
1110.4000, -65.591
1110.8000, -67.894
1111.2000, -62.351
1111.6000,-210.000
1112.0000, -65.927
1112.4000,-210.000
1112.8000,-210.000
1113.2000, -67.181
1113.6000,-210.000
1114.0000, -61.682
1114.4000,-210.000
1114.8000,-210.000
1115.2000,-210.000
1115.6000, -64.465
1116.0000, -60.636
1116.4000,-210.000
1116.8000,-210.000
1117.2000, -68.135
1117.6000,-210.000
1118.0000, -60.508
1118.4000,-210.000
1118.8000,-210.000
1119.2000, -75.376
1119.6000, -62.512
1120.0000,-210.000
1120.4000, -64.020
1120.8000,-210.000
1121.2000,-210.000
1121.6000, -64.298
1122.0000,-210.000
1122.4000, -68.096
1122.8000, -67.126
1123.2000,-210.000
1123.6000, -67.558
1124.0000, -76.088
1124.4000, -61.639
1124.8000,-210.000
1125.2000,-210.000
1125.6000,-210.000
1126.0000, -62.786
1126.4000,-210.000
1126.8000,-210.000
1127.2000, -63.935
1127.6000,-210.000
1128.0000, -62.753
1128.4000, -66.107
1128.8000, -63.182
1129.2000,-210.000
1129.6000, -66.573
1130.0000,-210.000
1130.4000, -67.529
1130.8000, -65.990
1131.2000, -70.995
1131.6000, -64.735
1132.0000, -67.771
1132.4000,-210.000
1132.8000, -66.639
1133.2000,-210.000
1133.6000,-210.000
1134.0000,-210.000
1134.4000, -63.513
1134.8000, -68.157
1135.2000, -72.866
1135.6000,-210.000
1136.0000, -79.251
1136.4000,-210.000
1136.8000, -73.521
1137.2000, -66.816
1137.6000,-210.000
1138.0000, -63.864
1138.4000,-210.000
1138.8000, -68.253
1139.2000, -72.514
1139.6000,-210.000
1140.0000,-210.000
1140.4000, -64.083
1140.8000,-210.000
1141.2000,-210.000
1141.6000, -66.311
1142.0000, -63.445
1142.4000,-210.000
1142.8000, -67.987
1143.2000,-210.000
1143.6000, -62.804
1144.0000,-210.000
1144.4000, -62.510
1144.8000, -70.049
1145.2000,-210.000
1145.6000,-210.000
1146.0000, -67.247
1146.4000,-210.000
1146.8000,-210.000
1147.2000, -67.750
1147.6000, -66.640
1148.0000, -63.724
1148.4000,-210.000
1148.8000, -66.043
1149.2000, -65.825
1149.6000, -80.001
1150.0000,-210.000
1150.4000, -62.830
1150.8000,-210.000
1151.2000, -61.894
1151.6000,-210.000
1152.0000,-210.000
1152.4000, -69.652
1152.8000, -66.914
1153.2000,-210.000
1153.6000,-210.000
1154.0000, -64.100
1154.4000, -67.719
1154.8000,-210.000
1155.2000, -71.718
1155.6000,-210.000
1156.0000, -64.270
1156.4000, -67.728
1156.8000, -68.134
1157.2000, -70.374
1157.6000, -65.945
1158.0000,-210.000
1158.4000, -66.269
1158.8000, -76.277
1159.2000,-210.000
1159.6000,-210.000
1160.0000,-210.000
1160.4000,-210.000
1160.8000,-210.000
1161.2000, -67.370
1161.6000,-210.000
1162.0000, -74.639
1162.4000, -65.517
1162.8000,-210.000
1163.2000,-210.000
1163.6000, -75.798
1164.0000, -64.208
1164.4000, -70.605
1164.8000,-210.000
1165.2000, -64.590
1165.6000,-210.000
1166.0000, -70.131
1166.4000, -72.726
1166.8000,-210.000
1167.2000,-210.000
1167.6000, -71.795
1168.0000,-210.000
1168.4000, -67.493
1168.8000,-210.000
1169.2000,-210.000
1169.6000, -62.988
1170.0000,-210.000
1170.4000, -71.234
1170.8000, -67.207
1171.2000, -63.208
1171.6000,-210.000
1172.0000, -67.639
1172.4000, -69.277
1172.8000, -64.025
1173.2000, -64.762
1173.6000,-210.000
1174.0000, -65.257
1174.4000,-210.000
1174.8000, -62.269
1175.2000, -63.841
1175.6000,-210.000
1176.0000,-210.000
1176.4000,-210.000
1176.8000, -66.165
1177.2000,-210.000
1177.6000,-210.000
1178.0000,-210.000
1178.4000, -66.167
1178.8000,-210.000
1179.2000,-210.000
1179.6000, -63.507
1180.0000, -72.149
1180.4000, -66.734
1180.8000,-210.000
1181.2000, -69.202
1181.6000,-210.000
1182.0000,-210.000
1182.4000,-210.000
1182.8000,-210.000
1183.2000,-210.000
1183.6000, -71.275
1184.0000,-210.000
1184.4000, -69.189
1184.8000, -71.007
1185.2000, -69.764
1185.6000,-210.000
1186.0000, -70.775
1186.4000,-210.000
1186.8000, -69.061
1187.2000, -65.964
1187.6000, -71.070
1188.0000,-210.000
1188.4000, -65.033
1188.8000,-210.000
1189.2000,-210.000
1189.6000, -78.272
1190.0000,-210.000
1190.4000, -70.180
1190.8000, -65.064
1191.2000, -72.091
1191.6000, -71.018
1192.0000, -66.794
1192.4000,-210.000
1192.8000,-210.000
1193.2000,-210.000
1193.6000,-210.000
1194.0000, -74.598
1194.4000, -64.969
1194.8000, -79.336
1195.2000, -70.849
1195.6000, -69.047
1196.0000,-210.000
1196.4000, -69.134
1196.8000, -66.277
1197.2000,-210.000
1197.6000,-210.000
1198.0000, -74.652
1198.4000, -69.899
1198.8000,-210.000
1199.2000, -67.944
1199.6000, -64.820
1200.0000, -95.648
1200.4000,-210.000
1200.8000, -74.142
1201.2000,-210.000
1201.6000, -70.866
1202.0000,-210.000
1202.4000, -71.407
1202.8000,-210.000
1203.2000, -71.991
1203.6000,-210.000
1204.0000, -66.714
1204.4000, -66.503
1204.8000,-210.000
1205.2000, -64.061
1205.6000,-210.000
1206.0000, -65.266
1206.4000,-210.000
1206.8000, -64.954
1207.2000, -69.470
1207.6000, -63.608
1208.0000,-210.000
1208.4000,-210.000
1208.8000,-210.000
1209.2000,-210.000
1209.6000, -69.643
1210.0000, -65.949
1210.4000,-210.000
1210.8000, -64.202
1211.2000, -76.521
1211.6000,-210.000
1212.0000,-210.000
1212.4000,-210.000
1212.8000,-210.000
1213.2000, -70.114
1213.6000, -68.457
1214.0000,-210.000
1214.4000, -69.738
1214.8000, -68.793
1215.2000, -69.043
1215.6000, -67.028
1216.0000, -66.202
1216.4000, -78.710
1216.8000, -68.050
1217.2000, -68.930
1217.6000, -67.842
1218.0000,-210.000
1218.4000, -74.366
1218.8000,-210.000
1219.2000, -72.041
1219.6000, -67.100
1220.0000, -66.960
1220.4000,-210.000
1220.8000,-210.000
1221.2000, -73.634
1221.6000, -68.249
1222.0000, -73.046
1222.4000, -71.795
1222.8000, -65.857
1223.2000, -64.961
1223.6000,-210.000
1224.0000, -64.527
1224.4000, -67.380
1224.8000, -78.143
1225.2000, -75.026
1225.6000, -66.916
1226.0000, -68.433
1226.4000, -73.865
1226.8000, -64.278
1227.2000, -67.726
1227.6000,-210.000
1228.0000, -68.736
1228.4000,-210.000
1228.8000, -66.800
1229.2000, -68.521
1229.6000,-210.000
1230.0000,-210.000
1230.4000, -66.559
1230.8000,-210.000
1231.2000, -80.723
1231.6000,-210.000
1232.0000, -70.596
1232.4000, -64.292
1232.8000,-210.000
1233.2000, -65.469
1233.6000,-210.000
1234.0000, -68.915
1234.4000,-210.000
1234.8000,-210.000
1235.2000, -78.641
1235.6000,-210.000
1236.0000, -71.183
1236.4000,-210.000
1236.8000, -67.150
1237.2000, -67.054
1237.6000, -66.821
1238.0000,-210.000
1238.4000, -66.056
1238.8000,-210.000
1239.2000, -66.317
1239.6000,-210.000
1240.0000,-210.000
1240.4000, -71.503
1240.8000, -62.847
1241.2000,-210.000
1241.6000,-210.000
1242.0000,-210.000
1242.4000, -69.184
1242.8000,-210.000
1243.2000, -71.713
1243.6000, -72.526
1244.0000,-210.000
1244.4000, -90.678
1244.8000, -65.737
1245.2000, -81.305
1245.6000,-210.000
1246.0000,-210.000
1246.4000, -75.419
1246.8000,-210.000
1247.2000,-210.000
1247.6000,-210.000
1248.0000, -76.461
1248.4000, -73.220
1248.8000, -67.283
1249.2000,-210.000
1249.6000,-210.000
1250.0000, -67.416
1250.4000, -65.298
1250.8000, -70.045
1251.2000,-210.000
1251.6000,-210.000
1252.0000,-210.000
1252.4000, -76.689
1252.8000, -67.613
1253.2000,-210.000
1253.6000, -70.696
1254.0000, -69.604
1254.4000, -75.172
1254.8000, -67.088
1255.2000,-210.000
1255.6000, -68.338
1256.0000,-210.000
1256.4000, -75.048
1256.8000, -63.748
1257.2000, -64.937
1257.6000,-210.000
1258.0000, -67.476
1258.4000,-210.000
1258.8000, -66.570
1259.2000, -67.706
1259.6000, -69.409
1260.0000,-210.000
1260.4000,-210.000
1260.8000, -65.892
1261.2000, -68.529
1261.6000,-210.000
1262.0000,-210.000
1262.4000,-210.000
1262.8000,-210.000
1263.2000,-210.000
1263.6000, -65.286
1264.0000, -67.617
1264.4000, -85.274
1264.8000, -68.253
1265.2000,-210.000
1265.6000,-210.000
1266.0000, -74.985
1266.4000,-210.000
1266.8000, -67.082
1267.2000,-210.000
1267.6000,-210.000
1268.0000, -71.738
1268.4000,-210.000
1268.8000,-210.000
1269.2000, -70.511
1269.6000,-210.000
1270.0000, -64.487
1270.4000, -70.040
1270.8000, -66.337
1271.2000,-210.000
1271.6000, -69.370
1272.0000, -73.613
1272.4000,-210.000
1272.8000, -67.329
1273.2000, -74.820
1273.6000,-210.000
1274.0000,-210.000
1274.4000, -69.061
1274.8000,-210.000
1275.2000, -66.474
1275.6000,-210.000
1276.0000,-210.000
1276.4000,-210.000
1276.8000, -65.629
1277.2000,-210.000
1277.6000,-210.000
1278.0000, -69.144
1278.4000, -66.557
1278.8000,-210.000
1279.2000,-210.000
1279.6000,-210.000
1280.0000, -77.846
1280.4000,-210.000
1280.8000, -79.622
1281.2000, -65.836
1281.6000, -70.708
1282.0000, -73.581
1282.4000,-210.000
1282.8000, -70.958
1283.2000, -68.492
1283.6000, -78.421
1284.0000, -70.467
1284.4000,-210.000
1284.8000, -68.568
1285.2000, -71.555
1285.6000, -70.227
1286.0000, -77.310
1286.4000, -68.341
1286.8000, -69.216
1287.2000, -68.528
1287.6000, -73.089
1288.0000,-210.000
1288.4000, -71.788
1288.8000, -67.037
1289.2000, -75.385
1289.6000, -68.355
1290.0000, -69.492
1290.4000,-210.000
1290.8000, -74.708
1291.2000,-210.000
1291.6000,-210.000
1292.0000, -68.746
1292.4000,-210.000
1292.8000, -67.656
1293.2000,-210.000
1293.6000, -73.882
1294.0000, -68.090
1294.4000,-210.000
1294.8000, -71.553
1295.2000,-210.000
1295.6000,-210.000
1296.0000, -66.722
1296.4000, -71.978
1296.8000, -67.570
1297.2000, -77.312
1297.6000, -69.598
1298.0000, -81.372
1298.4000,-210.000
1298.8000,-210.000
1299.2000, -68.024
1299.6000, -68.206
1300.0000,-210.000
1300.4000, -72.831
1300.8000,-210.000
1301.2000,-210.000
1301.6000, -69.122
1302.0000, -96.880
1302.4000,-210.000
1302.8000, -80.475
1303.2000,-210.000
1303.6000, -68.589
1304.0000,-210.000
1304.4000, -71.144
1304.8000,-210.000
1305.2000,-210.000
1305.6000, -68.056
1306.0000, -80.627
1306.4000, -70.273
1306.8000,-210.000
1307.2000,-210.000
1307.6000,-210.000
1308.0000, -65.684
1308.4000,-210.000
1308.8000, -73.159
1309.2000, -85.574
1309.6000,-210.000
1310.0000,-210.000
1310.4000,-210.000
1310.8000, -71.628
1311.2000,-210.000
1311.6000, -69.863
1312.0000,-210.000
1312.4000, -67.136
1312.8000, -70.328
1313.2000,-210.000
1313.6000, -89.667
1314.0000, -69.744
1314.4000, -70.256
1314.8000, -73.128
1315.2000,-210.000
1315.6000, -65.781
1316.0000, -69.545
1316.4000, -74.237
1316.8000,-210.000
1317.2000, -73.330
1317.6000, -70.633
1318.0000,-210.000
1318.4000, -68.735
1318.8000,-210.000
1319.2000, -75.262
1319.6000,-210.000
1320.0000,-210.000
1320.4000,-210.000
1320.8000, -74.980
1321.2000, -69.660
1321.6000, -76.677
1322.0000,-210.000
1322.4000, -75.360
1322.8000, -73.272
1323.2000,-210.000
1323.6000,-210.000
1324.0000, -64.942
1324.4000, -74.361
1324.8000,-210.000
1325.2000, -72.226
1325.6000, -67.634
1326.0000, -73.583
1326.4000,-210.000
1326.8000, -68.302
1327.2000, -69.235
1327.6000,-210.000
1328.0000, -70.071
1328.4000, -67.898
1328.8000,-210.000
1329.2000, -72.610
1329.6000,-210.000
1330.0000, -65.934
1330.4000, -78.427
1330.8000,-210.000
1331.2000,-210.000
1331.6000, -76.814
1332.0000, -66.087
1332.4000, -72.949
1332.8000, -65.914
1333.2000, -69.523
1333.6000,-210.000
1334.0000, -67.652
1334.4000,-210.000
1334.8000, -78.846
1335.2000, -72.950
1335.6000, -68.821
1336.0000,-210.000
1336.4000,-210.000
1336.8000,-210.000
1337.2000,-210.000
1337.6000,-210.000
1338.0000,-210.000
1338.4000, -77.399
1338.8000, -72.155
1339.2000, -66.587
1339.6000, -67.465
1340.0000,-210.000
1340.4000, -70.779
1340.8000, -67.453
1341.2000, -74.121
1341.6000, -70.847
1342.0000, -71.564
1342.4000, -71.075
1342.8000, -68.065
1343.2000, -70.001
1343.6000, -81.224
1344.0000, -74.008
1344.4000, -68.527
1344.8000, -73.389
1345.2000, -68.040
1345.6000, -70.843
1346.0000,-210.000
1346.4000,-210.000
1346.8000, -73.421
1347.2000,-210.000
1347.6000, -66.446
1348.0000, -74.689
1348.4000, -69.618
1348.8000, -71.316
1349.2000, -71.188
1349.6000,-210.000
1350.0000, -70.453
1350.4000, -72.178
1350.8000,-210.000
1351.2000, -68.585
1351.6000, -69.683
1352.0000,-210.000
1352.4000,-210.000
1352.8000, -69.486
1353.2000,-210.000
1353.6000, -73.090
1354.0000, -70.717
1354.4000, -70.034
1354.8000,-210.000
1355.2000, -70.432
1355.6000, -68.521
1356.0000,-210.000
1356.4000, -69.559
1356.8000,-210.000
1357.2000,-210.000
1357.6000, -67.877
1358.0000,-210.000
1358.4000, -75.466
1358.8000,-210.000
1359.2000,-210.000
1359.6000, -77.419
1360.0000, -75.436
1360.4000, -71.574
1360.8000, -71.900
1361.2000, -73.483
1361.6000, -70.514
1362.0000,-210.000
1362.4000,-210.000
1362.8000, -79.635
1363.2000,-210.000
1363.6000, -74.673
1364.0000,-210.000
1364.4000, -73.424
1364.8000,-210.000
1365.2000,-210.000
1365.6000,-210.000
1366.0000, -81.961
1366.4000, -69.326
1366.8000, -68.139
1367.2000, -74.147
1367.6000,-210.000
1368.0000, -69.442
1368.4000, -81.178
1368.8000, -71.247
1369.2000, -71.272
1369.6000, -69.860
1370.0000,-210.000
1370.4000, -68.170
1370.8000, -71.451
1371.2000,-210.000
1371.6000, -73.766
1372.0000,-210.000
1372.4000,-210.000
1372.8000, -76.498
1373.2000,-210.000
1373.6000,-210.000
1374.0000, -80.873
1374.4000, -70.719
1374.8000, -69.494
1375.2000, -81.738
1375.6000, -67.294
1376.0000, -81.024
1376.4000,-210.000
1376.8000,-210.000
1377.2000, -69.144
1377.6000, -71.958
1378.0000,-210.000
1378.4000, -75.954
1378.8000,-210.000
1379.2000, -74.752
1379.6000,-210.000
1380.0000, -70.011
1380.4000, -68.415
1380.8000, -69.680
1381.2000, -69.021
1381.6000, -72.445
1382.0000, -71.862
1382.4000, -68.986
1382.8000, -68.600
1383.2000,-210.000
1383.6000,-210.000
1384.0000, -69.724
1384.4000, -71.707
1384.8000, -69.345
1385.2000, -68.411
1385.6000, -84.693
1386.0000,-210.000
1386.4000, -81.639
1386.8000,-210.000
1387.2000, -69.533
1387.6000,-210.000
1388.0000, -70.909
1388.4000,-210.000
1388.8000, -73.361
1389.2000, -70.899
1389.6000,-210.000
1390.0000,-210.000
1390.4000,-210.000
1390.8000, -71.510
1391.2000, -73.607
1391.6000, -73.754
1392.0000,-210.000
1392.4000, -77.334
1392.8000, -70.563
1393.2000,-210.000
1393.6000, -68.193
1394.0000,-210.000
1394.4000, -71.757
1394.8000, -75.392
1395.2000, -73.331
1395.6000, -66.939
1396.0000, -67.775
1396.4000, -71.878
1396.8000,-210.000
1397.2000,-210.000
1397.6000,-210.000
1398.0000, -70.393
1398.4000, -72.380
1398.8000, -69.381
1399.2000, -81.703
1399.6000,-210.000
1400.0000,-210.000
1400.4000,-210.000
1400.8000, -74.078
1401.2000, -68.835
1401.6000,-210.000
1402.0000, -74.020
1402.4000, -76.653
1402.8000, -72.954
1403.2000,-210.000
1403.6000, -71.263
1404.0000,-210.000
1404.4000,-210.000
1404.8000,-210.000
1405.2000,-210.000
1405.6000, -72.809
1406.0000, -71.379
1406.4000,-210.000
1406.8000,-210.000
1407.2000, -79.070
1407.6000,-210.000
1408.0000, -68.243
1408.4000,-210.000
1408.8000, -75.283
1409.2000,-210.000
1409.6000, -69.183
1410.0000,-210.000
1410.4000, -71.625
1410.8000, -70.069
1411.2000, -72.054
1411.6000, -75.537
1412.0000, -71.000
1412.4000, -81.830
1412.8000, -68.150
1413.2000, -68.062
1413.6000, -75.276
1414.0000, -70.833
1414.4000,-210.000
1414.8000,-210.000
1415.2000, -68.098
1415.6000,-210.000
1416.0000, -69.103
1416.4000,-210.000
1416.8000, -75.901
1417.2000, -78.194
1417.6000, -76.755
1418.0000, -68.565
1418.4000,-210.000
1418.8000, -79.016
1419.2000, -72.778
1419.6000,-210.000
1420.0000,-210.000
1420.4000, -67.795
1420.8000,-210.000
1421.2000,-210.000
1421.6000,-210.000
1422.0000, -79.566
1422.4000,-210.000
1422.8000,-210.000
1423.2000,-210.000
1423.6000,-210.000
1424.0000,-210.000
1424.4000, -74.384
1424.8000,-210.000
1425.2000, -75.948
1425.6000,-210.000
1426.0000, -70.309
1426.4000, -74.650
1426.8000,-210.000
1427.2000, -72.210
1427.6000, -70.847
1428.0000, -71.513
1428.4000, -70.302
1428.8000, -72.253
1429.2000, -79.188
1429.6000, -77.338
1430.0000, -81.093
1430.4000,-210.000
1430.8000,-210.000
1431.2000, -79.843
1431.6000, -76.499
1432.0000,-210.000
1432.4000, -70.877
1432.8000, -76.874
1433.2000,-210.000
1433.6000, -69.820
1434.0000,-210.000
1434.4000,-210.000
1434.8000,-210.000
1435.2000, -67.565
1435.6000, -88.428
1436.0000,-210.000
1436.4000, -67.912
1436.8000, -70.739
1437.2000, -68.530
1437.6000, -72.459
1438.0000, -77.734
1438.4000, -68.149
1438.8000, -70.225
1439.2000,-210.000
1439.6000, -75.355
1440.0000,-210.000
1440.4000, -79.933
1440.8000,-210.000
1441.2000, -70.198
1441.6000,-210.000
1442.0000,-210.000
1442.4000, -71.569
1442.8000, -73.447
1443.2000, -70.746
1443.6000,-210.000
1444.0000,-210.000
1444.4000, -74.891
1444.8000, -75.720
1445.2000, -68.183
1445.6000, -75.379
1446.0000,-210.000
1446.4000, -70.130
1446.8000,-210.000
1447.2000,-210.000
1447.6000, -70.137
1448.0000, -70.055
1448.4000,-210.000
1448.8000, -80.163
1449.2000, -67.856
1449.6000, -79.627
1450.0000, -73.415
1450.4000, -75.803
1450.8000, -71.127
1451.2000,-210.000
1451.6000, -73.262
1452.0000,-210.000
1452.4000, -73.319
1452.8000, -77.492
1453.2000, -72.609
1453.6000, -71.731
1454.0000, -68.559
1454.4000,-210.000
1454.8000, -70.129
1455.2000, -74.402
1455.6000,-210.000
1456.0000, -67.622
1456.4000, -69.657
1456.8000, -72.488
1457.2000, -67.984
1457.6000, -68.165
1458.0000,-210.000
1458.4000, -72.872
1458.8000, -74.708
1459.2000, -66.759
1459.6000, -70.015
1460.0000,-210.000
1460.4000, -69.473
1460.8000, -68.983
1461.2000, -72.631
1461.6000, -68.643
1462.0000, -68.608
1462.4000, -68.025
1462.8000, -65.731
1463.2000, -68.950
1463.6000, -67.599
1464.0000, -67.627
1464.4000, -69.755
1464.8000, -66.086
1465.2000, -67.384
1465.6000, -69.157
1466.0000, -69.496
1466.4000, -72.904
1466.8000, -71.921
1467.2000, -66.707
1467.6000, -71.794
1468.0000, -68.505
1468.4000, -66.793
1468.8000, -65.771
1469.2000, -67.224
1469.6000, -69.724
1470.0000, -66.044
1470.4000, -66.027
1470.8000, -68.283
1471.2000, -67.971
1471.6000, -66.384
1472.0000, -66.331
1472.4000, -65.524
1472.8000, -64.417
1473.2000, -65.931
1473.6000, -64.983
1474.0000, -65.405
1474.4000, -64.421
1474.8000, -63.025
1475.2000, -63.400
1475.6000, -63.874
1476.0000, -63.667
1476.4000, -62.256
1476.8000, -63.221
1477.2000, -62.697
1477.6000, -62.775
1478.0000, -61.561
1478.4000, -62.983
1478.8000, -61.560
1479.2000, -62.154
1479.6000, -61.910
1480.0000, -62.122
1480.4000, -61.161
1480.8000, -62.161
1481.2000, -61.938
1481.6000, -61.397
1482.0000, -60.982
1482.4000, -61.792
1482.8000, -61.218
1483.2000, -61.174
1483.6000, -61.685
1484.0000, -61.449
1484.4000, -61.672
1484.8000, -61.515
1485.2000, -60.703
1485.6000, -61.635
1486.0000, -61.481
1486.4000, -62.369
1486.8000, -60.858
1487.2000, -61.202
1487.6000, -61.384
1488.0000, -61.297
1488.4000, -61.395
1488.8000, -60.878
1489.2000, -60.795
1489.6000, -60.748
1490.0000, -59.864
1490.4000, -60.244
1490.8000, -59.818
1491.2000, -59.880
1491.6000, -59.634
1492.0000, -59.696
1492.4000, -58.871
1492.8000, -59.077
1493.2000, -58.770
1493.6000, -58.397
1494.0000, -58.028
1494.4000, -57.755
1494.8000, -57.589
1495.2000, -57.329
1495.6000, -57.119
1496.0000, -57.045
1496.4000, -56.616
1496.8000, -56.455
1497.2000, -56.275
1497.6000, -55.949
1498.0000, -55.802
1498.4000, -55.528
1498.8000, -55.491
1499.2000, -55.283
1499.6000, -55.131
1500.0000, -54.818
1500.4000, -54.787
1500.8000, -54.508
1501.2000, -54.338
1501.6000, -54.223
1502.0000, -54.010
1502.4000, -53.941
1502.8000, -53.796
1503.2000, -53.531
1503.6000, -53.527
1504.0000, -53.323
1504.4000, -53.050
1504.8000, -53.040
1505.2000, -52.993
1505.6000, -52.858
1506.0000, -52.655
1506.4000, -52.540
1506.8000, -52.405
1507.2000, -52.234
1507.6000, -52.176
1508.0000, -52.091
1508.4000, -51.923
1508.8000, -51.738
1509.2000, -51.778
1509.6000, -51.610
1510.0000, -51.560
1510.4000, -51.407
1510.8000, -51.322
1511.2000, -51.271
1511.6000, -51.163
1512.0000, -51.055
1512.4000, -50.932
1512.8000, -50.815
1513.2000, -50.783
1513.6000, -50.623
1514.0000, -50.545
1514.4000, -50.463
1514.8000, -50.356
1515.2000, -50.153
1515.6000, -50.088
1516.0000, -49.891
1516.4000, -49.783
1516.8000, -49.618
1517.2000, -49.415
1517.6000, -49.248
1518.0000, -49.042
1518.4000, -48.817
1518.8000, -48.628
1519.2000, -48.335
1519.6000, -48.083
1520.0000, -47.802
1520.4000, -47.494
1520.8000, -47.187
1521.2000, -46.872
1521.6000, -46.527
1522.0000, -46.205
1522.4000, -45.841
1522.8000, -45.501
1523.2000, -45.135
1523.6000, -44.761
1524.0000, -44.381
1524.4000, -44.009
1524.8000, -43.644
1525.2000, -43.274
1525.6000, -42.918
1526.0000, -42.570
1526.4000, -42.240
1526.8000, -41.922
1527.2000, -41.599
1527.6000, -41.289
1528.0000, -40.985
1528.4000, -40.703
1528.8000, -40.413
1529.2000, -40.149
1529.6000, -39.882
1530.0000, -39.633
1530.4000, -39.394
1530.8000, -39.167
1531.2000, -38.953
1531.6000, -38.741
1532.0000, -38.548
1532.4000, -38.367
1532.8000, -38.197
1533.2000, -38.032
1533.6000, -37.862
1534.0000, -37.702
1534.4000, -37.534
1534.8000, -37.360
1535.2000, -37.182
1535.6000, -36.992
1536.0000, -36.798
1536.4000, -36.602
1536.8000, -36.407
1537.2000, -36.204
1537.6000, -35.999
1538.0000, -35.797
1538.4000, -35.599
1538.8000, -35.396
1539.2000, -35.200
1539.6000, -35.012
1540.0000, -34.828
1540.4000, -34.653
1540.8000, -34.486
1541.2000, -34.331
1541.6000, -34.189
1542.0000, -34.058
1542.4000, -33.935
1542.8000, -33.825
1543.2000, -33.719
1543.6000, -33.620
1544.0000, -33.524
1544.4000, -33.431
1544.8000, -33.348
1545.2000, -33.278
1545.6000, -33.222
1546.0000, -33.174
1546.4000, -33.145
1546.8000, -33.124
1547.2000, -33.114
1547.6000, -33.112
1548.0000, -33.118
1548.4000, -33.140
1548.8000, -33.172
1549.2000, -33.221
1549.6000, -33.286
1550.0000, -33.370
1550.4000, -33.477
1550.8000, -33.599
1551.2000, -33.748
1551.6000, -33.922
1552.0000, -34.114
1552.4000, -34.327
1552.8000, -34.556
1553.2000, -34.810
1553.6000, -35.084
1554.0000, -35.390
1554.4000, -35.721
1554.8000, -36.089
1555.2000, -36.488
1555.6000, -36.920
1556.0000, -37.382
1556.4000, -37.859
1556.8000, -38.356
1557.2000, -38.885
1557.6000, -39.450
1558.0000, -40.056
1558.4000, -40.703
1558.8000, -41.389
1559.2000, -42.129
1559.6000, -42.887
1560.0000, -43.616
1560.4000, -44.283
1560.8000, -44.865
1561.2000, -45.335
1561.6000, -45.676
1562.0000, -45.879
1562.4000, -45.930
1562.8000, -45.881
1563.2000, -45.669
1563.6000, -45.383
1564.0000, -45.051
1564.4000, -44.686
1564.8000, -44.259
1565.2000, -43.901
1565.6000, -43.561
1566.0000, -43.249
1566.4000, -42.940
1566.8000, -42.664
1567.2000, -42.392
1567.6000, -42.113
1568.0000, -41.835
1568.4000, -41.546
1568.8000, -41.260
1569.2000, -40.981
1569.6000, -40.706
1570.0000, -40.432
1570.4000, -40.187
1570.8000, -39.946
1571.2000, -39.725
1571.6000, -39.519
1572.0000, -39.326
1572.4000, -39.153
1572.8000, -38.987
1573.2000, -38.831
1573.6000, -38.686
1574.0000, -38.545
1574.4000, -38.410
1574.8000, -38.280
1575.2000, -38.148
1575.6000, -38.020
1576.0000, -37.890
1576.4000, -37.757
1576.8000, -37.618
1577.2000, -37.478
1577.6000, -37.337
1578.0000, -37.195
1578.4000, -37.054
1578.8000, -36.900
1579.2000, -36.748
1579.6000, -36.597
1580.0000, -36.442
1580.4000, -36.297
1580.8000, -36.158
1581.2000, -36.026
1581.6000, -35.899
1582.0000, -35.771
1582.4000, -35.650
1582.8000, -35.535
1583.2000, -35.418
1583.6000, -35.310
1584.0000, -35.210
1584.4000, -35.121
1584.8000, -35.037
1585.2000, -34.962
1585.6000, -34.892
1586.0000, -34.831
1586.4000, -34.770
1586.8000, -34.715
1587.2000, -34.660
1587.6000, -34.610
1588.0000, -34.564
1588.4000, -34.525
1588.8000, -34.491
1589.2000, -34.456
1589.6000, -34.427
1590.0000, -34.402
1590.4000, -34.373
1590.8000, -34.350
1591.2000, -34.336
1591.6000, -34.324
1592.0000, -34.316
1592.4000, -34.320
1592.8000, -34.323
1593.2000, -34.328
1593.6000, -34.324
1594.0000, -34.325
1594.4000, -34.324
1594.8000, -34.323
1595.2000, -34.320
1595.6000, -34.320
1596.0000, -34.327
1596.4000, -34.333
1596.8000, -34.341
1597.2000, -34.351
1597.6000, -34.361
1598.0000, -34.373
1598.4000, -34.383
1598.8000, -34.394
1599.2000, -34.413
1599.6000, -34.439
1600.0000, -34.474
1600.4000, -34.515
1600.8000, -34.557
1601.2000, -34.601
1601.6000, -34.649
1602.0000, -34.698
1602.4000, -34.743
1602.8000, -34.786
1603.2000, -34.835
1603.6000, -34.889
1604.0000, -34.946
1604.4000, -35.004
1604.8000, -35.077
1605.2000, -35.156
1605.6000, -35.243
1606.0000, -35.337
1606.4000, -35.432
1606.8000, -35.529
1607.2000, -35.640
1607.6000, -35.760
1608.0000, -35.892
1608.4000, -36.028
1608.8000, -36.171
1609.2000, -36.325
1609.6000, -36.480
1610.0000, -36.632
1610.4000, -36.788
1610.8000, -36.943
1611.2000, -37.111
1611.6000, -37.278
1612.0000, -37.457
1612.4000, -37.642
1612.8000, -37.842
1613.2000, -38.053
1613.6000, -38.265
1614.0000, -38.486
1614.4000, -38.702
1614.8000, -38.920
1615.2000, -39.137
1615.6000, -39.358
1616.0000, -39.576
1616.4000, -39.792
1616.8000, -40.005
1617.2000, -40.195
1617.6000, -40.375
1618.0000, -40.529
1618.4000, -40.661
1618.8000, -40.765
1619.2000, -40.852
1619.6000, -40.921
1620.0000, -40.967
1620.4000, -41.006
1620.8000, -41.023
1621.2000, -41.028
1621.6000, -41.016
1622.0000, -40.992
1622.4000, -40.950
1622.8000, -40.908
1623.2000, -40.855
1623.6000, -40.809
1624.0000, -40.767
1624.4000, -40.721
1624.8000, -40.678
1625.2000, -40.641
1625.6000, -40.613
1626.0000, -40.593
1626.4000, -40.578
1626.8000, -40.575
1627.2000, -40.593
1627.6000, -40.607
1628.0000, -40.643
1628.4000, -40.686
1628.8000, -40.744
1629.2000, -40.808
1629.6000, -40.887
1630.0000, -40.982
1630.4000, -41.101
1630.8000, -41.235
1631.2000, -41.387
1631.6000, -41.562
1632.0000, -41.758
1632.4000, -41.961
1632.8000, -42.186
1633.2000, -42.420
1633.6000, -42.660
1634.0000, -42.944
1634.4000, -43.241
1634.8000, -43.566
1635.2000, -43.916
1635.6000, -44.290
1636.0000, -44.693
1636.4000, -45.102
1636.8000, -45.554
1637.2000, -46.008
1637.6000, -46.496
1638.0000, -47.030
1638.4000, -47.583
1638.8000, -48.166
1639.2000, -48.786
1639.6000, -49.413
1640.0000, -50.132
1640.4000, -50.839
1640.8000, -51.638
1641.2000, -52.437
1641.6000, -53.367
1642.0000, -54.320
1642.4000, -55.297
1642.8000, -56.380
1643.2000, -57.710
1643.6000, -58.976
1644.0000, -60.144
1644.4000, -61.737
1644.8000, -62.836
1645.2000, -65.849
1645.6000, -67.392
1646.0000, -67.844
1646.4000, -81.443
1646.8000, -69.118
1647.2000, -69.220
1647.6000, -96.290
1648.0000, -67.245
1648.4000, -76.058
1648.8000, -67.678
1649.2000, -84.086
1649.6000, -68.393
1650.0000, -69.210
1650.4000, -80.172
1650.8000, -69.037
1651.2000, -68.977
1651.6000, -68.741
1652.0000, -68.542
1652.4000, -68.302
1652.8000, -65.683
1653.2000, -65.833
1653.6000, -64.602
1654.0000, -64.232
1654.4000, -62.485
1654.8000, -62.640
1655.2000, -62.089
1655.6000, -60.771
1656.0000, -60.938
1656.4000, -60.448
1656.8000, -60.396
1657.2000, -59.759
1657.6000, -59.216
1658.0000, -59.580
1658.4000, -58.980
1658.8000, -59.089
1659.2000, -58.438
1659.6000, -58.943
1660.0000, -58.565
1660.4000, -58.740
1660.8000, -58.586
1661.2000, -58.798
1661.6000, -58.843
1662.0000, -59.328
1662.4000, -59.172
1662.8000, -59.511
1663.2000, -59.825
1663.6000, -59.534
1664.0000, -59.749
1664.4000, -59.810
1664.8000, -59.805
1665.2000, -59.864
1665.6000, -60.450
1666.0000, -60.408
1666.4000, -60.224
1666.8000, -60.289
1667.2000, -60.676
1667.6000, -60.884
1668.0000, -60.760
1668.4000, -60.986
1668.8000, -61.449
1669.2000, -61.666
1669.6000, -62.261
1670.0000, -62.818
1670.4000, -63.238
1670.8000, -64.299
1671.2000, -65.653
1671.6000, -65.612
1672.0000, -67.312
1672.4000, -68.812
1672.8000, -69.878
1673.2000, -70.437
1673.6000, -80.050
1674.0000, -72.906
1674.4000,-210.000
1674.8000, -72.304
1675.2000,-210.000
1675.6000, -75.442
1676.0000, -75.898
1676.4000, -69.099
1676.8000, -70.468
1677.2000, -72.894
1677.6000, -69.418
1678.0000, -70.449
1678.4000, -69.537
1678.8000, -70.499
1679.2000, -68.425
1679.6000, -67.518
1680.0000, -68.668
1680.4000, -67.761
1680.8000, -68.060
1681.2000, -67.290
1681.6000, -65.708
1682.0000, -67.599
1682.4000, -67.559
1682.8000, -68.877
1683.2000, -67.305
1683.6000, -70.694
1684.0000, -71.264
1684.4000, -67.354
1684.8000, -67.887
1685.2000, -67.281
1685.6000, -70.225
1686.0000, -72.310
1686.4000, -68.874
1686.8000, -85.005
1687.2000, -68.212
1687.6000, -69.398
1688.0000, -71.271
1688.4000, -70.311
1688.8000, -70.359
1689.2000, -75.193
1689.6000, -70.660
1690.0000, -72.000
1690.4000, -72.603
1690.8000, -68.612
1691.2000, -67.939
1691.6000, -70.466
1692.0000, -70.100
1692.4000, -70.826
1692.8000, -70.961
1693.2000, -69.844
1693.6000, -73.685
1694.0000, -67.543
1694.4000, -70.431
1694.8000, -69.997
1695.2000, -69.114
1695.6000,-210.000
1696.0000, -73.295
1696.4000, -71.191
1696.8000, -74.920
1697.2000,-210.000
1697.6000, -70.889
1698.0000, -72.065
1698.4000,-210.000
1698.8000, -72.633
1699.2000, -68.870
1699.6000,-210.000
1700.0000,-210.000
1700.4000,-210.000
1700.8000, -69.077
1701.2000, -70.149
1701.6000,-210.000
1702.0000, -74.516
1702.4000,-210.000
1702.8000, -76.147
1703.2000, -68.975
1703.6000, -71.326
1704.0000, -81.781
1704.4000, -72.009
1704.8000, -70.792
1705.2000, -69.947
1705.6000, -79.989
1706.0000, -70.773
1706.4000, -72.632
1706.8000,-210.000
1707.2000, -69.765
1707.6000,-210.000
1708.0000, -96.767
1708.4000, -71.351
1708.8000, -72.266
1709.2000,-210.000
1709.6000, -73.171
1710.0000, -77.382
1710.4000,-210.000
1710.8000, -78.511
1711.2000, -77.811
1711.6000, -75.328
1712.0000,-210.000
1712.4000, -89.701
1712.8000, -75.107
1713.2000,-210.000
1713.6000,-210.000
1714.0000,-210.000
1714.4000, -76.423
1714.8000,-210.000
1715.2000, -76.898
1715.6000, -72.321
1716.0000,-210.000
1716.4000, -78.281
1716.8000, -79.917
1717.2000,-210.000
1717.6000,-210.000
1718.0000, -72.523
1718.4000,-210.000
1718.8000, -72.812
1719.2000, -74.784
1719.6000, -72.223
1720.0000, -75.147
1720.4000,-210.000
1720.8000,-210.000
1721.2000, -81.679
1721.6000,-210.000
1722.0000, -73.831
1722.4000, -91.067
1722.8000,-210.000
1723.2000, -73.732
1723.6000,-210.000
1724.0000,-210.000
1724.4000, -77.175
1724.8000, -72.019
1725.2000, -74.117
1725.6000, -77.838
1726.0000,-210.000
1726.4000,-210.000
1726.8000, -73.116
1727.2000, -82.740
1727.6000, -71.109
1728.0000, -71.529
1728.4000, -85.795
1728.8000,-210.000
1729.2000, -73.159
1729.6000,-210.000
1730.0000,-210.000
1730.4000,-210.000
1730.8000,-210.000
1731.2000,-210.000
1731.6000, -71.147
1732.0000,-210.000
1732.4000, -81.548
1732.8000,-210.000
1733.2000, -74.410
1733.6000, -73.846
1734.0000, -71.955
1734.4000, -71.332
1734.8000, -91.367
1735.2000,-210.000
1735.6000, -76.032
1736.0000, -71.382
1736.4000,-210.000
1736.8000, -72.458
1737.2000, -72.517
1737.6000, -77.717
1738.0000,-210.000
1738.4000, -76.948
1738.8000, -79.573
1739.2000, -79.571
1739.6000, -82.531
1740.0000, -70.698
1740.4000, -75.283
1740.8000, -76.507
1741.2000, -70.282
1741.6000,-210.000
1742.0000,-210.000
1742.4000, -71.852
1742.8000,-210.000
1743.2000, -72.740
1743.6000, -70.182
1744.0000, -77.132
1744.4000,-210.000
1744.8000, -69.798
1745.2000,-210.000
1745.6000,-210.000
1746.0000,-210.000
1746.4000, -82.168
1746.8000, -70.740
1747.2000, -76.079
1747.6000, -77.068
1748.0000, -84.665
1748.4000,-210.000
1748.8000, -69.843
1749.2000,-210.000
1749.6000,-210.000
1750.0000,-210.000
1750.4000, -75.447
1750.8000, -71.903
1751.2000,-210.000
1751.6000,-210.000
1752.0000, -75.145
1752.4000, -70.839
1752.8000,-210.000
1753.2000, -74.939
1753.6000, -73.419
1754.0000,-210.000
1754.4000, -72.470
1754.8000, -74.977
1755.2000,-210.000
1755.6000,-210.000
1756.0000, -73.926
1756.4000,-210.000
1756.8000,-210.000
1757.2000, -84.312
1757.6000, -81.920
1758.0000, -92.583
1758.4000, -74.961
1758.8000, -70.793
1759.2000, -77.170
1759.6000, -86.451
1760.0000,-210.000
1760.4000, -77.044
1760.8000, -78.865
1761.2000, -79.041
1761.6000, -77.927
1762.0000, -77.554
1762.4000, -72.328
1762.8000,-210.000
1763.2000,-210.000
1763.6000, -73.414
1764.0000,-210.000
1764.4000, -73.544
1764.8000,-210.000
1765.2000, -71.257
1765.6000,-210.000
1766.0000, -72.615
1766.4000, -78.267
1766.8000,-210.000
1767.2000,-210.000
1767.6000,-210.000
1768.0000,-210.000
1768.4000, -70.646
1768.8000,-210.000
1769.2000, -91.074
1769.6000,-210.000
1770.0000,-210.000
1770.4000,-210.000
1770.8000,-210.000
1771.2000, -76.054
1771.6000, -71.054
1772.0000, -78.208
1772.4000, -78.713
1772.8000,-210.000
1773.2000,-210.000
1773.6000, -80.865
1774.0000, -87.960
1774.4000,-210.000
1774.8000,-210.000
1775.2000,-210.000
1775.6000, -86.029
1776.0000, -73.657
1776.4000, -78.734
1776.8000,-210.000
1777.2000,-210.000
1777.6000,-210.000
1778.0000, -73.952
1778.4000,-210.000
1778.8000,-210.000
1779.2000,-210.000
1779.6000, -80.357
1780.0000, -78.126
1780.4000,-210.000
1780.8000, -69.859
1781.2000, -69.478
1781.6000,-210.000
1782.0000, -75.495
1782.4000, -78.259
1782.8000,-210.000
1783.2000, -72.083
1783.6000, -74.336
1784.0000, -77.389
1784.4000, -77.889
1784.8000, -73.929
1785.2000,-210.000
1785.6000, -69.674
1786.0000,-210.000
1786.4000, -74.852
1786.8000, -74.272
1787.2000, -98.655
1787.6000,-210.000
1788.0000,-210.000
1788.4000, -74.301
1788.8000, -73.072
1789.2000,-210.000
1789.6000,-210.000
1790.0000, -77.934
1790.4000,-210.000
1790.8000, -76.085
1791.2000, -75.432
1791.6000, -71.689
1792.0000,-210.000
1792.4000,-210.000
1792.8000,-210.000
1793.2000, -78.217
1793.6000,-210.000
1794.0000,-210.000
1794.4000, -74.299
1794.8000,-210.000
1795.2000, -73.592
1795.6000,-210.000
1796.0000, -74.776
1796.4000,-210.000
1796.8000, -74.086
1797.2000, -78.143
1797.6000, -71.848
1798.0000, -73.345
1798.4000, -74.109
1798.8000,-210.000
1799.2000, -71.917
1799.6000,-210.000
1800.0000, -73.856
1800.4000,-210.000
1800.8000,-210.000
1801.2000, -77.426
1801.6000, -72.694
1802.0000, -78.038
1802.4000, -74.358
1802.8000,-210.000
1803.2000,-210.000
1803.6000,-210.000
1804.0000, -71.508
1804.4000, -73.587
1804.8000, -83.369
1805.2000, -72.665
1805.6000,-210.000
1806.0000, -73.468
1806.4000, -76.303
1806.8000,-210.000
1807.2000, -68.188
1807.6000,-210.000
1808.0000,-210.000
1808.4000,-210.000
1808.8000, -71.769
1809.2000, -75.053
1809.6000, -71.233
1810.0000, -80.726
1810.4000, -75.046
1810.8000, -79.540
1811.2000,-210.000
1811.6000, -73.057
1812.0000, -76.749
1812.4000, -71.614
1812.8000,-210.000
1813.2000,-210.000
1813.6000, -78.900
1814.0000, -87.170
1814.4000,-210.000
1814.8000,-210.000
1815.2000, -78.706
1815.6000, -82.071
1816.0000, -76.617
1816.4000,-210.000
1816.8000, -76.909
1817.2000,-210.000
1817.6000, -77.569
1818.0000, -77.315
1818.4000, -83.369
1818.8000,-210.000
1819.2000, -76.828
1819.6000, -76.109
1820.0000, -74.220
1820.4000,-210.000
1820.8000,-210.000
1821.2000, -73.240
1821.6000, -72.309
1822.0000, -76.532
1822.4000, -81.876
1822.8000, -70.476
1823.2000,-210.000
1823.6000, -73.764
1824.0000, -69.798
1824.4000, -76.558
1824.8000,-210.000
1825.2000, -74.562
1825.6000,-210.000
1826.0000, -70.832
1826.4000, -85.889
1826.8000,-210.000
1827.2000,-210.000
1827.6000,-210.000
1828.0000, -77.478
1828.4000, -78.130
1828.8000, -76.562
1829.2000, -79.770
1829.6000, -77.369
1830.0000,-210.000
1830.4000,-210.000
1830.8000, -76.278
1831.2000, -75.612
1831.6000,-210.000
1832.0000,-210.000
1832.4000,-210.000
1832.8000, -73.281
1833.2000,-210.000
1833.6000, -75.801
1834.0000, -75.246
1834.4000, -77.534
1834.8000, -71.120
1835.2000, -78.799
1835.6000,-210.000
1836.0000,-210.000
1836.4000, -71.390
1836.8000, -78.683
1837.2000, -75.205
1837.6000, -75.285
1838.0000,-210.000
1838.4000, -73.969
1838.8000,-210.000
1839.2000, -69.976
1839.6000,-210.000
1840.0000, -73.925
1840.4000,-210.000
1840.8000, -77.319
1841.2000,-210.000
1841.6000, -72.679
1842.0000, -83.696
1842.4000,-210.000
1842.8000, -72.180
1843.2000, -73.504
1843.6000, -74.648
1844.0000,-210.000
1844.4000, -70.899
1844.8000, -74.177
1845.2000, -75.734
1845.6000, -72.438
1846.0000, -71.688
1846.4000,-210.000
1846.8000, -72.873
1847.2000, -78.095
1847.6000, -72.700
1848.0000, -76.218
1848.4000,-210.000
1848.8000, -77.742
1849.2000,-210.000
1849.6000, -72.022
1850.0000, -77.651
1850.4000, -73.493
1850.8000, -76.531
1851.2000, -81.116
1851.6000, -70.509
1852.0000, -86.567
1852.4000,-210.000
1852.8000, -71.494
1853.2000, -73.545
1853.6000, -77.355
1854.0000, -75.465
1854.4000, -86.442
1854.8000, -79.988
1855.2000, -71.318
1855.6000,-210.000
1856.0000,-210.000
1856.4000, -71.495
1856.8000, -76.992
1857.2000,-210.000
1857.6000,-210.000
1858.0000, -76.425
1858.4000, -77.490
1858.8000, -70.911
1859.2000, -74.117
1859.6000, -74.014
1860.0000, -74.295
1860.4000, -76.106
1860.8000, -81.580
1861.2000, -70.332
1861.6000, -71.848
1862.0000, -83.520
1862.4000,-210.000
1862.8000,-210.000
1863.2000,-210.000
1863.6000,-210.000
1864.0000, -86.999
1864.4000, -71.265
1864.8000, -72.941
1865.2000, -73.388
1865.6000,-210.000
1866.0000, -72.878
1866.4000,-210.000
1866.8000, -73.050
1867.2000, -71.574
1867.6000,-210.000
1868.0000, -76.457
1868.4000, -73.026
1868.8000,-210.000
1869.2000, -73.096
1869.6000,-210.000
1870.0000, -73.649
1870.4000, -69.063
1870.8000, -72.861
1871.2000,-210.000
1871.6000,-210.000
1872.0000, -69.572
1872.4000,-210.000
1872.8000, -74.368
1873.2000, -70.906
1873.6000, -72.169
1874.0000, -70.575
1874.4000, -83.326
1874.8000,-210.000
1875.2000, -70.921
1875.6000,-210.000
1876.0000, -73.912
1876.4000, -74.811
1876.8000, -75.660
1877.2000, -72.849
1877.6000,-210.000
1878.0000, -72.183
1878.4000, -73.530
1878.8000, -73.935
1879.2000, -70.640
1879.6000, -69.584
1880.0000, -77.968
1880.4000, -74.826
1880.8000,-210.000
1881.2000, -78.223
1881.6000,-210.000
1882.0000,-210.000
1882.4000, -71.977
1882.8000, -73.291
1883.2000,-210.000
1883.6000, -74.296
1884.0000, -71.293
1884.4000,-210.000
1884.8000, -75.752
1885.2000, -81.723
1885.6000,-210.000
1886.0000, -80.406
1886.4000, -77.549
1886.8000, -73.292
1887.2000, -77.076
1887.6000, -72.353
1888.0000,-210.000
1888.4000, -75.727
1888.8000, -74.114
1889.2000, -73.808
1889.6000, -78.068
1890.0000, -75.436
1890.4000, -80.843
1890.8000, -73.687
1891.2000, -83.552
1891.6000, -71.418
1892.0000, -76.897
1892.4000, -76.265
1892.8000, -73.896
1893.2000, -75.896
1893.6000, -82.073
1894.0000, -80.655
1894.4000, -73.282
1894.8000, -75.538
1895.2000, -71.477
1895.6000, -77.833
1896.0000, -77.805
1896.4000, -76.914
1896.8000,-210.000
1897.2000, -71.108
1897.6000, -73.112
1898.0000, -72.922
1898.4000,-210.000
1898.8000, -80.238
1899.2000, -72.112
1899.6000, -74.471
1900.0000, -72.743
1900.4000, -75.081
1900.8000, -74.925
1901.2000, -75.290
1901.6000, -72.562
1902.0000, -75.498
1902.4000,-210.000
1902.8000, -86.070
1903.2000,-210.000
1903.6000, -76.566
1904.0000, -72.971
1904.4000, -78.045
1904.8000, -78.867
1905.2000,-210.000
1905.6000, -76.184
1906.0000, -72.222
1906.4000,-210.000
1906.8000, -76.199
1907.2000,-210.000
1907.6000, -83.870
1908.0000, -73.720
1908.4000, -71.922
1908.8000, -69.220
1909.2000,-210.000
1909.6000, -92.223
1910.0000, -76.277
1910.4000, -71.034
1910.8000, -77.421
1911.2000, -70.165
1911.6000, -72.652
1912.0000, -70.965
1912.4000, -72.363
1912.8000, -71.330
1913.2000, -78.462
1913.6000, -71.386
1914.0000, -72.037
1914.4000, -71.027
1914.8000, -74.418
1915.2000, -80.197
1915.6000, -71.978
1916.0000, -71.432
1916.4000, -79.238
1916.8000, -76.761
1917.2000, -73.071
1917.6000,-210.000
1918.0000, -77.295
1918.4000, -74.906
1918.8000, -77.359
1919.2000,-210.000
1919.6000, -74.902
1920.0000, -74.194
1920.4000, -70.621
1920.8000, -71.903
1921.2000, -71.328
1921.6000, -77.235
1922.0000, -71.875
1922.4000, -75.425
1922.8000, -70.098
1923.2000, -75.805
1923.6000, -71.975
1924.0000, -75.639
1924.4000, -76.721
1924.8000,-210.000
1925.2000, -74.308
1925.6000, -71.959
1926.0000,-210.000
1926.4000, -76.941
1926.8000, -77.012
1927.2000, -71.702
1927.6000, -71.068
1928.0000,-210.000
1928.4000, -75.005
1928.8000, -77.854
1929.2000, -70.982
1929.6000,-210.000
1930.0000, -75.982
1930.4000, -75.917
1930.8000, -72.029
1931.2000,-210.000
1931.6000,-210.000
1932.0000, -82.149
1932.4000, -76.834
1932.8000, -71.260
1933.2000, -80.696
1933.6000,-210.000
1934.0000, -79.606
1934.4000, -79.639
1934.8000, -80.642
1935.2000,-210.000
1935.6000, -75.872
1936.0000, -72.882
1936.4000,-210.000
1936.8000, -72.285
1937.2000, -74.147
1937.6000, -72.058
1938.0000,-210.000
1938.4000,-210.000
1938.8000, -78.371
1939.2000, -72.272
1939.6000,-210.000
1940.0000, -72.857
1940.4000, -79.198
1940.8000, -79.337
1941.2000, -72.438
1941.6000, -75.370
1942.0000,-210.000
1942.4000, -74.422
1942.8000,-210.000
1943.2000, -81.202
1943.6000, -70.338
1944.0000,-210.000
1944.4000, -75.119
1944.8000,-210.000
1945.2000, -74.914
1945.6000, -83.746
1946.0000,-210.000
1946.4000, -76.090
1946.8000, -76.402
1947.2000,-210.000
1947.6000,-210.000
1948.0000, -73.418
1948.4000, -72.311
1948.8000,-210.000
1949.2000, -72.702
1949.6000, -71.286
1950.0000, -74.105
1950.4000, -72.777
1950.8000, -77.239
1951.2000,-210.000
1951.6000, -73.591
1952.0000, -76.168
1952.4000, -75.058
1952.8000,-210.000
1953.2000,-210.000
1953.6000, -74.128
1954.0000,-210.000
1954.4000, -72.051
1954.8000,-210.000
1955.2000,-210.000
1955.6000, -80.432
1956.0000,-210.000
1956.4000, -72.325
1956.8000, -73.403
1957.2000,-210.000
1957.6000,-210.000
1958.0000, -76.053
1958.4000, -75.557
1958.8000, -74.934
1959.2000, -72.342
1959.6000, -88.102
1960.0000,-210.000
1960.4000,-210.000
1960.8000,-210.000
1961.2000,-210.000
1961.6000,-210.000
1962.0000, -79.637
1962.4000,-210.000
1962.8000,-210.000
1963.2000, -73.760
1963.6000, -73.047
1964.0000,-210.000
1964.4000, -79.752
1964.8000, -82.866
1965.2000, -76.802
1965.6000, -74.951
1966.0000, -74.936
1966.4000, -76.244
1966.8000,-210.000
1967.2000, -76.446
1967.6000, -72.403
1968.0000,-210.000
1968.4000,-210.000
1968.8000,-210.000
1969.2000,-210.000
1969.6000, -75.564
1970.0000, -78.234
1970.4000, -72.711
1970.8000,-210.000
1971.2000, -76.821
1971.6000, -74.252
1972.0000, -74.932
1972.4000,-210.000
1972.8000, -78.011
1973.2000, -72.223
1973.6000, -78.136
1974.0000, -76.284
1974.4000,-210.000
1974.8000, -78.084
1975.2000, -83.971
1975.6000, -84.124
1976.0000,-210.000
1976.4000,-210.000
1976.8000,-210.000
1977.2000, -73.370
1977.6000, -72.563
1978.0000, -76.450
1978.4000, -82.016
1978.8000, -79.126
1979.2000, -76.777
1979.6000,-210.000
1980.0000, -73.550
1980.4000,-210.000
1980.8000, -88.130
1981.2000,-210.000
1981.6000,-210.000
1982.0000, -71.941
1982.4000,-210.000
1982.8000, -75.557
1983.2000, -76.737
1983.6000, -78.038
1984.0000, -71.782
1984.4000, -85.909
1984.8000, -83.801
1985.2000, -79.296
1985.6000, -78.652
1986.0000, -74.649
1986.4000, -72.201
1986.8000, -73.618
1987.2000, -75.587
1987.6000, -77.648
1988.0000, -76.436
1988.4000, -80.196
1988.8000,-210.000
1989.2000, -79.736
1989.6000,-210.000
1990.0000,-210.000
1990.4000,-210.000
1990.8000,-210.000
1991.2000, -80.715
1991.6000, -75.980
1992.0000,-210.000
1992.4000, -73.557
1992.8000, -76.704
1993.2000, -76.770
1993.6000,-210.000
1994.0000, -72.476
1994.4000,-210.000
1994.8000, -72.732
1995.2000, -72.971
1995.6000,-210.000
1996.0000,-210.000
1996.4000,-210.000
1996.8000, -74.209
1997.2000,-210.000
1997.6000, -79.607
1998.0000,-210.000
1998.4000,-210.000
1998.8000, -83.041
1999.2000, -81.536
1999.6000, -73.069
2000.0000, -73.517
2000.4000, -78.218
2000.8000, -80.464
2001.2000,-210.000
2001.6000, -76.532
2002.0000,-210.000
2002.4000,-210.000
2002.8000,-210.000
2003.2000, -85.101
2003.6000,-210.000
2004.0000, -75.172
2004.4000, -77.720
2004.8000, -91.960
2005.2000,-210.000
2005.6000, -77.214
2006.0000,-210.000
2006.4000,-210.000
2006.8000,-210.000
2007.2000,-210.000
2007.6000,-210.000
2008.0000, -90.752
2008.4000, -72.581
2008.8000, -76.495
2009.2000,-210.000
2009.6000,-210.000
2010.0000,-210.000
2010.4000, -78.068
2010.8000,-210.000
2011.2000,-210.000
2011.6000,-210.000
2012.0000, -75.294
2012.4000,-210.000
2012.8000, -77.396
2013.2000,-210.000
2013.6000, -74.548
2014.0000,-210.000
2014.4000, -73.901
2014.8000,-210.000
2015.2000, -86.692
2015.6000,-210.000
2016.0000,-210.000
2016.4000, -73.965
2016.8000, -77.176
2017.2000,-210.000
2017.6000,-210.000
2018.0000,-210.000
2018.4000, -72.523
2018.8000, -73.829
2019.2000, -71.745
2019.6000, -73.118
2020.0000, -82.109
2020.4000, -73.513
2020.8000, -71.011
2021.2000, -80.697
2021.6000, -70.765
2022.0000,-210.000
2022.4000, -72.607
2022.8000, -75.290
2023.2000, -70.880
2023.6000,-210.000
2024.0000, -74.831
2024.4000, -71.671
2024.8000, -80.284
2025.2000, -76.483
2025.6000, -93.247
2026.0000,-210.000
2026.4000, -77.152
2026.8000, -78.756
2027.2000,-210.000
2027.6000, -71.370
2028.0000, -72.336
2028.4000, -74.857
2028.8000,-210.000
2029.2000,-210.000
2029.6000, -73.083
2030.0000, -73.116
2030.4000,-210.000
2030.8000, -75.563
2031.2000, -76.774
2031.6000,-210.000
2032.0000, -76.012
2032.4000, -71.580
2032.8000, -77.266
2033.2000, -72.885
2033.6000,-210.000
2034.0000, -74.288
2034.4000,-210.000
2034.8000,-210.000
2035.2000,-210.000
2035.6000, -79.881
2036.0000, -73.670
2036.4000,-210.000
2036.8000,-210.000
2037.2000, -73.100
2037.6000, -71.973
2038.0000, -78.787
2038.4000,-210.000
2038.8000, -84.562
2039.2000, -72.029
2039.6000,-210.000
2040.0000, -77.077
2040.4000, -73.090
2040.8000,-210.000
2041.2000,-100.598
2041.6000,-210.000
2042.0000, -79.812
2042.4000, -71.483
2042.8000, -73.510
2043.2000, -74.260
2043.6000,-210.000
2044.0000,-210.000
2044.4000, -77.234
2044.8000, -75.603
2045.2000, -73.358
2045.6000, -78.808
2046.0000,-210.000
2046.4000, -79.696
2046.8000, -70.781
2047.2000, -76.336
2047.6000,-210.000
2048.0000, -73.668
2048.4000,-210.000
2048.8000, -75.261
2049.2000, -77.663
2049.6000, -75.943
2050.0000, -79.810
2050.4000, -76.437
2050.8000, -76.539
2051.2000, -75.889
2051.6000,-210.000
2052.0000, -83.389
2052.4000,-210.000
2052.8000, -73.458
2053.2000,-210.000
2053.6000, -80.448
2054.0000,-210.000
2054.4000, -74.046
2054.8000,-210.000
2055.2000, -70.936
2055.6000, -75.743
2056.0000, -71.445
2056.4000,-210.000
2056.8000, -80.844
2057.2000,-210.000
2057.6000,-210.000
2058.0000,-210.000
2058.4000, -74.596
2058.8000, -81.112
2059.2000, -70.876
2059.6000,-210.000
2060.0000,-210.000
2060.4000, -73.805
2060.8000, -79.532
2061.2000, -79.703
2061.6000,-210.000
2062.0000, -74.866
2062.4000, -77.680
2062.8000,-210.000
2063.2000, -73.161
2063.6000,-210.000
2064.0000, -79.857
2064.4000, -79.349
2064.8000, -83.610
2065.2000,-210.000
2065.6000, -78.931
2066.0000, -70.935
2066.4000,-210.000
2066.8000, -75.531
2067.2000, -75.430
2067.6000,-210.000
2068.0000, -73.902
2068.4000, -73.439
2068.8000, -82.633
2069.2000,-210.000
2069.6000, -73.465
2070.0000, -75.832
2070.4000, -84.881
2070.8000,-210.000
2071.2000, -81.549
2071.6000, -73.585
2072.0000, -71.275
2072.4000, -76.658
2072.8000, -72.079
2073.2000, -73.340
2073.6000, -80.145
2074.0000,-210.000
2074.4000,-210.000
2074.8000, -73.360
2075.2000, -84.988
2075.6000,-210.000
2076.0000, -71.105
2076.4000, -74.234
2076.8000, -73.544
2077.2000,-210.000
2077.6000, -72.305
2078.0000, -80.989
2078.4000, -74.907
2078.8000, -79.570
2079.2000,-210.000
2079.6000,-210.000
2080.0000, -78.181
2080.4000, -73.301
2080.8000,-210.000
2081.2000, -75.964
2081.6000, -75.692
2082.0000, -72.726
2082.4000, -74.227
2082.8000, -78.139
2083.2000, -73.646
2083.6000,-210.000
2084.0000, -70.022
2084.4000,-210.000
2084.8000,-210.000
2085.2000,-210.000
2085.6000, -80.841
2086.0000, -74.645
2086.4000,-210.000
2086.8000,-210.000
2087.2000, -75.175
2087.6000,-210.000
2088.0000,-210.000
2088.4000,-210.000
2088.8000, -89.149
2089.2000, -78.253
2089.6000,-210.000
2090.0000, -76.431
2090.4000, -78.611
2090.8000, -78.695
2091.2000, -73.711
2091.6000, -81.917
2092.0000, -74.425
2092.4000,-210.000
2092.8000, -80.279
2093.2000, -76.661
2093.6000, -75.480
2094.0000, -76.718
2094.4000,-210.000
2094.8000, -76.099
2095.2000, -77.992
2095.6000, -89.517
2096.0000, -72.358
2096.4000, -74.538
2096.8000,-210.000
2097.2000,-210.000
2097.6000, -74.508
2098.0000, -75.234
2098.4000, -75.168
2098.8000, -73.297
2099.2000,-210.000
2099.6000, -76.611
2100.0000, -77.537
2100.4000, -78.006
2100.8000, -80.358
2101.2000, -76.015
2101.6000,-210.000
2102.0000, -70.789
2102.4000,-210.000
2102.8000, -78.702
2103.2000, -84.706
2103.6000,-210.000
2104.0000,-210.000
2104.4000, -85.093
2104.8000, -85.768
2105.2000,-210.000
2105.6000,-210.000
2106.0000,-210.000
2106.4000,-210.000
2106.8000, -71.976
2107.2000,-210.000
2107.6000, -82.300
2108.0000, -75.503
2108.4000, -73.373
2108.8000, -92.160
2109.2000, -80.996
2109.6000,-210.000
2110.0000,-210.000
2110.4000,-210.000
2110.8000, -73.355
2111.2000, -73.357
2111.6000,-210.000
2112.0000,-210.000
2112.4000, -79.161
2112.8000, -72.722
2113.2000,-210.000
2113.6000, -76.463
2114.0000,-210.000
2114.4000, -73.882
2114.8000,-210.000
2115.2000, -74.398
2115.6000,-210.000
2116.0000,-210.000
2116.4000,-210.000
2116.8000,-210.000
2117.2000, -80.516
2117.6000,-210.000
2118.0000, -76.178
2118.4000, -85.331
2118.8000, -73.281
2119.2000,-210.000
2119.6000, -75.880
2120.0000, -79.612
2120.4000,-210.000
2120.8000,-210.000
2121.2000, -77.596
2121.6000, -75.992
2122.0000,-210.000
2122.4000,-210.000
2122.8000,-210.000
2123.2000,-210.000
2123.6000, -89.050
2124.0000, -75.827
2124.4000,-210.000
2124.8000, -77.740
2125.2000, -82.333
2125.6000,-210.000
2126.0000,-210.000
2126.4000,-210.000
2126.8000, -88.304
2127.2000, -93.795
2127.6000,-210.000
2128.0000, -71.636
2128.4000, -79.446
2128.8000,-210.000
2129.2000,-210.000
2129.6000,-210.000
2130.0000,-210.000
2130.4000, -72.085
2130.8000,-210.000
2131.2000, -76.624
2131.6000,-210.000
2132.0000, -76.481
2132.4000, -83.329
2132.8000, -86.236
2133.2000, -72.187
2133.6000, -72.060
2134.0000, -76.201
2134.4000,-210.000
2134.8000,-210.000
2135.2000, -76.448
2135.6000, -78.945
2136.0000,-210.000
2136.4000,-210.000
2136.8000, -79.737
2137.2000, -74.467
2137.6000, -76.408
2138.0000,-210.000
2138.4000, -76.283
2138.8000, -75.273
2139.2000, -89.961
2139.6000, -72.594
2140.0000, -75.731
2140.4000, -81.408
2140.8000,-210.000
2141.2000, -78.642
2141.6000,-210.000
2142.0000,-210.000
2142.4000, -72.636
2142.8000,-210.000
2143.2000, -72.991
2143.6000,-210.000
2144.0000, -73.780
2144.4000, -73.660
2144.8000, -95.685
2145.2000,-210.000
2145.6000, -72.666
2146.0000, -73.824
2146.4000,-210.000
2146.8000, -88.735
2147.2000, -74.206
2147.6000,-210.000
2148.0000, -77.381
2148.4000, -75.841
2148.8000,-210.000
2149.2000, -75.656
2149.6000, -73.338
2150.0000, -72.805
2150.4000, -73.176
2150.8000, -95.634
2151.2000, -82.274
2151.6000,-210.000
2152.0000, -73.681
2152.4000,-210.000
2152.8000, -75.785
2153.2000,-210.000
2153.6000, -77.642
2154.0000,-210.000
2154.4000,-210.000
2154.8000,-210.000
2155.2000, -80.381
2155.6000, -77.057
2156.0000, -77.532
2156.4000, -71.601
2156.8000, -74.031
2157.2000,-210.000
2157.6000, -82.490
2158.0000,-210.000
2158.4000, -74.563
2158.8000, -69.814
2159.2000, -72.823
2159.6000,-210.000
2160.0000,-210.000
2160.4000,-210.000
2160.8000, -88.103
2161.2000,-210.000
2161.6000, -74.236
2162.0000,-210.000
2162.4000,-210.000
2162.8000, -75.256
2163.2000, -74.893
2163.6000, -72.723
2164.0000, -78.395
2164.4000,-210.000
2164.8000, -73.527
2165.2000,-210.000
2165.6000,-210.000
2166.0000, -72.969
2166.4000,-210.000
2166.8000, -79.931
2167.2000, -76.259
2167.6000, -70.866
2168.0000,-210.000
2168.4000,-210.000
2168.8000, -79.409
2169.2000,-210.000
2169.6000, -73.833
2170.0000,-210.000
2170.4000,-210.000
2170.8000, -75.480
2171.2000,-210.000
2171.6000, -73.084
2172.0000, -76.812
2172.4000,-210.000
2172.8000, -73.684
2173.2000, -88.383
2173.6000, -79.276
2174.0000,-210.000
2174.4000, -78.746
2174.8000, -73.272
2175.2000, -74.011
2175.6000, -77.544
2176.0000, -70.994
2176.4000, -78.643
2176.8000,-210.000
2177.2000, -81.066
2177.6000, -76.580
2178.0000, -74.940
2178.4000,-210.000
2178.8000,-210.000
2179.2000,-210.000
2179.6000, -74.503
2180.0000, -78.026
2180.4000, -81.391
2180.8000, -78.072
2181.2000, -78.667
2181.6000, -74.653
2182.0000, -75.273
2182.4000, -73.488
2182.8000, -71.824
2183.2000, -72.184
2183.6000, -79.023
2184.0000,-210.000
2184.4000,-210.000
2184.8000,-210.000
2185.2000,-210.000
2185.6000,-210.000
2186.0000,-210.000
2186.4000, -72.436
2186.8000, -73.647
2187.2000,-210.000
2187.6000, -79.426
2188.0000,-210.000
2188.4000, -75.941
2188.8000,-210.000
2189.2000, -76.494
2189.6000,-210.000
2190.0000, -73.897
2190.4000,-210.000
2190.8000, -74.033
2191.2000, -90.228
2191.6000,-210.000
2192.0000, -78.150
2192.4000,-210.000
2192.8000,-210.000
2193.2000, -71.641
2193.6000,-210.000
2194.0000, -75.340
2194.4000, -76.024
2194.8000,-210.000
2195.2000, -73.470
2195.6000, -73.883
2196.0000,-210.000
2196.4000, -71.726
2196.8000, -75.300
2197.2000, -69.875
2197.6000, -81.238
2198.0000, -78.516
2198.4000,-210.000
2198.8000, -79.965
2199.2000,-210.000
2199.6000, -82.866
2200.0000,-210.000
2200.4000,-210.000
2200.8000, -73.778
2201.2000, -72.576
2201.6000, -70.037
2202.0000,-210.000
2202.4000, -74.197
2202.8000,-210.000
2203.2000,-210.000
2203.6000,-210.000
2204.0000, -77.457
2204.4000,-210.000
2204.8000, -76.779
2205.2000, -74.684
2205.6000,-210.000
2206.0000,-210.000
2206.4000,-210.000
2206.8000, -70.242
2207.2000, -83.307
2207.6000,-210.000
2208.0000, -79.636
2208.4000, -85.310
2208.8000,-210.000
2209.2000, -83.756
2209.6000, -75.370
2210.0000, -75.965
2210.4000, -77.241
2210.8000,-210.000
2211.2000, -73.177
2211.6000, -72.750
2212.0000, -73.704
2212.4000, -76.214
2212.8000, -74.753
2213.2000,-210.000
2213.6000, -75.781
2214.0000, -80.426
2214.4000,-210.000
2214.8000, -92.673
2215.2000,-210.000
2215.6000, -76.066
2216.0000, -75.173
2216.4000, -73.691
2216.8000,-210.000
2217.2000, -87.466
2217.6000,-210.000
2218.0000, -78.195
2218.4000, -70.998
2218.8000, -80.750
2219.2000,-210.000
2219.6000, -77.180
2220.0000, -73.248
2220.4000,-210.000
2220.8000, -72.690
2221.2000,-210.000
2221.6000,-210.000
2222.0000,-210.000
2222.4000,-210.000
2222.8000,-210.000
2223.2000, -73.427
2223.6000,-210.000
2224.0000, -77.546
2224.4000,-210.000
2224.8000,-210.000
2225.2000, -78.437
2225.6000, -74.918
2226.0000, -75.948
2226.4000, -74.684
2226.8000,-210.000
2227.2000, -73.455
2227.6000,-210.000
2228.0000,-210.000
2228.4000, -73.877
2228.8000, -81.566
2229.2000, -71.510
2229.6000, -72.216
2230.0000,-210.000
2230.4000, -70.652
2230.8000, -75.557
2231.2000, -86.327
2231.6000, -75.113
2232.0000,-210.000
2232.4000, -70.390
2232.8000,-210.000
2233.2000, -72.175
2233.6000, -71.855
2234.0000, -73.130
2234.4000,-210.000
2234.8000,-210.000
2235.2000, -76.142
2235.6000, -80.910
2236.0000, -72.742
2236.4000, -75.406
2236.8000, -72.239
2237.2000,-210.000
2237.6000,-210.000
2238.0000, -80.089
2238.4000,-210.000
2238.8000,-210.000
2239.2000, -81.091
2239.6000, -75.789
2240.0000,-210.000
2240.4000, -85.643
2240.8000,-210.000
2241.2000, -90.475
2241.6000,-210.000
2242.0000, -76.941
2242.4000,-210.000
2242.8000,-210.000
2243.2000, -70.427
2243.6000, -75.263
2244.0000, -69.600
2244.4000,-210.000
2244.8000,-210.000
2245.2000,-210.000
2245.6000,-210.000
2246.0000, -70.514
2246.4000, -73.141
2246.8000,-210.000
2247.2000,-210.000
2247.6000,-210.000
2248.0000,-210.000
2248.4000, -80.019
2248.8000, -69.955
2249.2000, -77.638
2249.6000, -71.222
2250.0000,-210.000
2250.4000, -70.419
2250.8000, -69.766
2251.2000, -72.010
2251.6000, -80.551
2252.0000,-210.000
2252.4000,-210.000
2252.8000, -71.097
2253.2000, -80.440
2253.6000,-210.000
2254.0000,-210.000
2254.4000,-210.000
2254.8000,-210.000
2255.2000,-210.000
2255.6000,-210.000
2256.0000, -69.375
2256.4000,-210.000
2256.8000, -71.110
2257.2000,-210.000
2257.6000,-210.000
2258.0000,-210.000
2258.4000, -84.334
2258.8000,-210.000
2259.2000, -80.674
2259.6000,-210.000
2260.0000, -69.186
2260.4000, -77.793
2260.8000, -73.526
2261.2000, -75.417
2261.6000,-210.000
2262.0000,-210.000
2262.4000, -81.760
2262.8000, -77.163
2263.2000,-210.000
2263.6000, -78.539
2264.0000, -74.404
2264.4000,-210.000
2264.8000, -70.779
2265.2000,-210.000
2265.6000, -70.142
2266.0000,-210.000
2266.4000,-210.000
2266.8000,-210.000
2267.2000,-210.000
2267.6000,-210.000
2268.0000, -72.327
2268.4000, -72.790
2268.8000,-210.000
2269.2000,-210.000
2269.6000, -76.961
2270.0000, -77.705
2270.4000, -77.788
2270.8000, -83.272
2271.2000,-210.000
2271.6000, -82.126
2272.0000, -76.824
2272.4000, -71.581
2272.8000, -70.004
2273.2000, -74.702
2273.6000, -75.378
2274.0000, -80.471
2274.4000, -72.457
2274.8000,-210.000
2275.2000,-210.000
2275.6000, -78.039
2276.0000,-210.000
2276.4000,-210.000
2276.8000, -76.622
2277.2000, -69.031
2277.6000,-210.000
2278.0000,-210.000
2278.4000, -73.256
2278.8000, -73.501
2279.2000,-210.000
2279.6000,-210.000
2280.0000, -72.906
2280.4000, -76.182
2280.8000,-210.000
2281.2000,-210.000
2281.6000,-210.000
2282.0000,-210.000
2282.4000, -82.637
2282.8000, -73.364
2283.2000, -77.446
2283.6000, -71.810
2284.0000,-210.000
2284.4000, -69.393
2284.8000, -77.098
2285.2000,-210.000
2285.6000, -77.264
2286.0000,-210.000
2286.4000,-210.000
2286.8000, -74.558
2287.2000,-210.000
2287.6000, -72.540
2288.0000,-210.000
2288.4000,-210.000
2288.8000,-210.000
2289.2000,-210.000
2289.6000, -83.800
2290.0000,-210.000
2290.4000,-210.000
2290.8000,-210.000
2291.2000,-210.000
2291.6000,-210.000
2292.0000,-210.000
2292.4000, -82.467
2292.8000,-210.000
2293.2000, -86.945
2293.6000,-210.000
2294.0000,-210.000
2294.4000, -73.161
2294.8000, -76.128
2295.2000, -77.597
2295.6000,-210.000
2296.0000, -69.077
2296.4000,-210.000
2296.8000,-210.000
2297.2000, -74.637
2297.6000, -73.930
2298.0000,-210.000
2298.4000, -73.478
2298.8000, -75.558
2299.2000, -74.688
2299.6000,-210.000
2300.0000,-210.000
