75ECSV 	
// AQ6375E OPTICAL SPECTRUM ANALYZER //
40
"CTRWL",1650.000000
"SPAN",1300.000000
"START WL",1000.000000
"STOP WL",2300.000000
"WLFREQ", 0
"REFL", -9.6
"LSCL",10.0
"RESLN",2.000
"CUSTOM RES",0
"AVG",   1
"SMPLAUTO",      0
"SMPL",       3251
"SMPLINTVL",0.4000
"NORMAL"
"SENS LEVEL",-67.0
"MEAS"
"LSUNT",0
"NMSKH","OFF"
"RESCOR",0
"SMOOTH",0
"MEASWL",1
"MODELNAME",AQ6375E
"NEBWCAL0",    0
"NEBWCAL1",    0
"NEBWCALWL",   0
"RESCAL0_0",   9977
"RESCAL0_1",      0
"RESCAL0_2",      0
"RESCAL1_0",   9977
"RESCAL1_1",      0
"RESCAL1_2",      0









"[TRACE DATA]"
1000.0000, -50.106
1000.4000, -50.246
1000.8000, -50.654
1001.2000, -50.611
1001.6000, -50.421
1002.0000, -50.919
1002.4000, -50.482
1002.8000, -50.635
1003.2000, -50.521
1003.6000, -50.634
1004.0000, -50.489
1004.4000, -50.264
1004.8000, -50.358
1005.2000, -50.324
1005.6000, -50.549
1006.0000, -50.230
1006.4000, -50.918
1006.8000, -50.695
1007.2000, -50.882
1007.6000, -50.604
1008.0000, -50.964
1008.4000, -50.741
1008.8000, -50.569
1009.2000, -50.253
1009.6000, -50.623
1010.0000, -50.563
1010.4000, -50.948
1010.8000, -50.516
1011.2000, -50.711
1011.6000, -50.754
1012.0000, -50.922
1012.4000, -50.869
1012.8000, -50.315
1013.2000, -51.087
1013.6000, -50.665
1014.0000, -50.779
1014.4000, -50.841
1014.8000, -50.402
1015.2000, -50.310
1015.6000, -50.553
1016.0000, -50.943
1016.4000, -51.129
1016.8000, -50.652
1017.2000, -51.035
1017.6000, -50.547
1018.0000, -50.926
1018.4000, -50.769
1018.8000, -50.821
1019.2000, -51.137
1019.6000, -50.976
1020.0000, -50.498
1020.4000, -51.278
1020.8000, -50.624
1021.2000, -50.999
1021.6000, -51.178
1022.0000, -50.687
1022.4000, -51.181
1022.8000, -51.071
1023.2000, -50.611
1023.6000, -50.773
1024.0000, -51.375
1024.4000, -51.569
1024.8000, -51.120
1025.2000, -50.921
1025.6000, -51.074
1026.0000, -51.158
1026.4000, -51.065
1026.8000, -50.737
1027.2000, -51.335
1027.6000, -51.231
1028.0000, -51.524
1028.4000, -51.263
1028.8000, -51.421
1029.2000, -50.897
1029.6000, -50.926
1030.0000, -51.251
1030.4000, -50.965
1030.8000, -50.817
1031.2000, -51.874
1031.6000, -51.038
1032.0000, -51.168
1032.4000, -50.945
1032.8000, -51.425
1033.2000, -50.833
1033.6000, -51.176
1034.0000, -51.692
1034.4000, -51.272
1034.8000, -51.219
1035.2000, -51.647
1035.6000, -51.423
1036.0000, -51.147
1036.4000, -51.243
1036.8000, -51.619
1037.2000, -51.124
1037.6000, -51.561
1038.0000, -51.451
1038.4000, -51.728
1038.8000, -51.494
1039.2000, -51.650
1039.6000, -51.382
1040.0000, -51.690
1040.4000, -51.357
1040.8000, -51.486
1041.2000, -51.895
1041.6000, -51.575
1042.0000, -51.530
1042.4000, -51.538
1042.8000, -51.483
1043.2000, -51.840
1043.6000, -51.231
1044.0000, -51.685
1044.4000, -51.942
1044.8000, -51.950
1045.2000, -51.689
1045.6000, -51.767
1046.0000, -51.265
1046.4000, -52.058
1046.8000, -51.625
1047.2000, -51.927
1047.6000, -51.849
1048.0000, -51.227
1048.4000, -51.547
1048.8000, -52.178
1049.2000, -51.468
1049.6000, -51.664
1050.0000, -51.676
1050.4000, -51.347
1050.8000, -52.200
1051.2000, -51.703
1051.6000, -51.711
1052.0000, -51.953
1052.4000, -51.267
1052.8000, -51.638
1053.2000, -52.049
1053.6000, -52.010
1054.0000, -51.840
1054.4000, -51.776
1054.8000, -52.090
1055.2000, -51.835
1055.6000, -52.286
1056.0000, -51.820
1056.4000, -51.516
1056.8000, -51.750
1057.2000, -52.123
1057.6000, -51.813
1058.0000, -52.031
1058.4000, -51.901
1058.8000, -51.777
1059.2000, -51.832
1059.6000, -52.054
1060.0000, -51.724
1060.4000, -51.776
1060.8000, -51.708
1061.2000, -51.956
1061.6000, -51.872
1062.0000, -51.940
1062.4000, -51.845
1062.8000, -52.214
1063.2000, -51.514
1063.6000, -51.858
1064.0000, -51.743
1064.4000, -52.325
1064.8000, -52.014
1065.2000, -52.480
1065.6000, -52.105
1066.0000, -52.055
1066.4000, -51.976
1066.8000, -52.421
1067.2000, -51.460
1067.6000, -51.918
1068.0000, -52.060
1068.4000, -51.809
1068.8000, -51.871
1069.2000, -51.933
1069.6000, -52.347
1070.0000, -52.254
1070.4000, -52.038
1070.8000, -52.134
1071.2000, -52.206
1071.6000, -52.077
1072.0000, -52.223
1072.4000, -51.906
1072.8000, -52.126
1073.2000, -51.994
1073.6000, -52.290
1074.0000, -52.084
1074.4000, -52.622
1074.8000, -51.555
1075.2000, -52.404
1075.6000, -52.229
1076.0000, -51.691
1076.4000, -52.135
1076.8000, -52.191
1077.2000, -52.181
1077.6000, -51.864
1078.0000, -52.225
1078.4000, -52.179
1078.8000, -52.771
1079.2000, -52.353
1079.6000, -52.050
1080.0000, -52.059
1080.4000, -52.130
1080.8000, -52.175
1081.2000, -52.177
1081.6000, -52.752
1082.0000, -51.944
1082.4000, -52.620
1082.8000, -51.701
1083.2000, -51.968
1083.6000, -52.548
1084.0000, -52.596
1084.4000, -52.268
1084.8000, -51.950
1085.2000, -51.952
1085.6000, -52.218
1086.0000, -52.368
1086.4000, -52.338
1086.8000, -52.105
1087.2000, -52.496
1087.6000, -51.851
1088.0000, -51.971
1088.4000, -52.146
1088.8000, -52.130
1089.2000, -52.357
1089.6000, -52.241
1090.0000, -52.243
1090.4000, -52.632
1090.8000, -52.366
1091.2000, -52.100
1091.6000, -52.781
1092.0000, -52.337
1092.4000, -52.149
1092.8000, -52.452
1093.2000, -52.354
1093.6000, -52.467
1094.0000, -52.599
1094.4000, -52.951
1094.8000, -52.471
1095.2000, -52.973
1095.6000, -52.406
1096.0000, -52.558
1096.4000, -52.157
1096.8000, -52.761
1097.2000, -52.264
1097.6000, -52.029
1098.0000, -52.498
1098.4000, -52.257
1098.8000, -52.362
1099.2000, -52.862
1099.6000, -52.258
1100.0000, -52.716
1100.4000, -52.475
1100.8000, -52.960
1101.2000, -52.562
1101.6000, -52.363
1102.0000, -51.887
1102.4000, -52.668
1102.8000, -52.526
1103.2000, -52.288
1103.6000, -52.341
1104.0000, -52.820
1104.4000, -52.468
1104.8000, -53.029
1105.2000, -52.679
1105.6000, -52.874
1106.0000, -51.926
1106.4000, -52.550
1106.8000, -52.264
1107.2000, -52.778
1107.6000, -52.147
1108.0000, -52.783
1108.4000, -52.472
1108.8000, -52.314
1109.2000, -52.795
1109.6000, -52.648
1110.0000, -52.511
1110.4000, -52.117
1110.8000, -52.731
1111.2000, -52.697
1111.6000, -52.360
1112.0000, -52.562
1112.4000, -52.494
1112.8000, -52.746
1113.2000, -52.645
1113.6000, -52.425
1114.0000, -53.034
1114.4000, -52.480
1114.8000, -52.761
1115.2000, -52.691
1115.6000, -52.874
1116.0000, -52.580
1116.4000, -52.742
1116.8000, -52.578
1117.2000, -53.084
1117.6000, -52.956
1118.0000, -53.087
1118.4000, -53.116
1118.8000, -52.669
1119.2000, -52.750
1119.6000, -52.951
1120.0000, -52.495
1120.4000, -52.826
1120.8000, -52.896
1121.2000, -52.878
1121.6000, -52.553
1122.0000, -52.490
1122.4000, -53.055
1122.8000, -53.141
1123.2000, -52.822
1123.6000, -52.769
1124.0000, -52.884
1124.4000, -52.206
1124.8000, -52.661
1125.2000, -52.845
1125.6000, -53.063
1126.0000, -53.298
1126.4000, -52.978
1126.8000, -53.206
1127.2000, -52.652
1127.6000, -53.107
1128.0000, -53.267
1128.4000, -52.950
1128.8000, -53.214
1129.2000, -53.078
1129.6000, -53.060
1130.0000, -53.421
1130.4000, -53.196
1130.8000, -53.069
1131.2000, -53.835
1131.6000, -53.165
1132.0000, -53.008
1132.4000, -53.484
1132.8000, -53.295
1133.2000, -53.111
1133.6000, -53.273
1134.0000, -53.141
1134.4000, -52.529
1134.8000, -53.514
1135.2000, -53.281
1135.6000, -53.327
1136.0000, -53.624
1136.4000, -53.371
1136.8000, -53.194
1137.2000, -53.743
1137.6000, -53.333
1138.0000, -53.707
1138.4000, -53.585
1138.8000, -53.674
1139.2000, -53.436
1139.6000, -53.335
1140.0000, -53.037
1140.4000, -53.600
1140.8000, -53.365
1141.2000, -53.351
1141.6000, -53.754
1142.0000, -53.085
1142.4000, -53.771
1142.8000, -53.938
1143.2000, -53.146
1143.6000, -53.701
1144.0000, -53.761
1144.4000, -53.562
1144.8000, -53.604
1145.2000, -54.403
1145.6000, -53.673
1146.0000, -53.670
1146.4000, -53.402
1146.8000, -53.795
1147.2000, -53.662
1147.6000, -53.765
1148.0000, -53.799
1148.4000, -53.792
1148.8000, -54.204
1149.2000, -53.912
1149.6000, -53.692
1150.0000, -53.336
1150.4000, -53.766
1150.8000, -53.149
1151.2000, -53.325
1151.6000, -53.063
1152.0000, -54.226
1152.4000, -53.899
1152.8000, -54.194
1153.2000, -53.953
1153.6000, -53.736
1154.0000, -53.942
1154.4000, -53.730
1154.8000, -53.857
1155.2000, -53.729
1155.6000, -54.097
1156.0000, -54.036
1156.4000, -53.970
1156.8000, -53.523
1157.2000, -53.615
1157.6000, -54.116
1158.0000, -53.783
1158.4000, -53.440
1158.8000, -54.058
1159.2000, -53.583
1159.6000, -53.856
1160.0000, -54.358
1160.4000, -53.741
1160.8000, -54.200
1161.2000, -54.160
1161.6000, -54.262
1162.0000, -53.862
1162.4000, -53.397
1162.8000, -54.369
1163.2000, -53.716
1163.6000, -54.955
1164.0000, -54.117
1164.4000, -53.791
1164.8000, -54.471
1165.2000, -54.630
1165.6000, -54.232
1166.0000, -53.707
1166.4000, -54.058
1166.8000, -54.021
1167.2000, -53.536
1167.6000, -54.062
1168.0000, -54.391
1168.4000, -54.003
1168.8000, -54.008
1169.2000, -54.131
1169.6000, -54.816
1170.0000, -54.013
1170.4000, -54.227
1170.8000, -54.612
1171.2000, -54.002
1171.6000, -54.630
1172.0000, -54.256
1172.4000, -54.480
1172.8000, -54.016
1173.2000, -54.200
1173.6000, -54.063
1174.0000, -54.152
1174.4000, -54.284
1174.8000, -54.467
1175.2000, -54.509
1175.6000, -54.441
1176.0000, -54.519
1176.4000, -54.351
1176.8000, -54.604
1177.2000, -54.235
1177.6000, -54.565
1178.0000, -54.409
1178.4000, -54.410
1178.8000, -54.661
1179.2000, -54.555
1179.6000, -54.259
1180.0000, -54.461
1180.4000, -54.783
1180.8000, -54.478
1181.2000, -54.522
1181.6000, -54.166
1182.0000, -54.308
1182.4000, -54.508
1182.8000, -54.371
1183.2000, -54.838
1183.6000, -54.856
1184.0000, -54.060
1184.4000, -54.675
1184.8000, -54.463
1185.2000, -54.947
1185.6000, -54.460
1186.0000, -55.008
1186.4000, -54.538
1186.8000, -54.495
1187.2000, -54.520
1187.6000, -54.947
1188.0000, -54.688
1188.4000, -54.760
1188.8000, -55.038
1189.2000, -54.594
1189.6000, -55.176
1190.0000, -54.785
1190.4000, -54.787
1190.8000, -55.252
1191.2000, -54.857
1191.6000, -55.342
1192.0000, -55.223
1192.4000, -55.020
1192.8000, -54.526
1193.2000, -55.125
1193.6000, -55.014
1194.0000, -55.309
1194.4000, -54.608
1194.8000, -54.779
1195.2000, -55.138
1195.6000, -54.714
1196.0000, -55.006
1196.4000, -54.842
1196.8000, -54.573
1197.2000, -54.688
1197.6000, -55.072
1198.0000, -54.875
1198.4000, -55.329
1198.8000, -54.926
1199.2000, -55.014
1199.6000, -54.916
1200.0000, -55.328
1200.4000, -55.364
1200.8000, -55.051
1201.2000, -55.272
1201.6000, -55.159
1202.0000, -55.349
1202.4000, -55.602
1202.8000, -54.631
1203.2000, -54.699
1203.6000, -55.307
1204.0000, -54.754
1204.4000, -55.306
1204.8000, -55.589
1205.2000, -55.392
1205.6000, -55.391
1206.0000, -55.149
1206.4000, -55.471
1206.8000, -55.210
1207.2000, -55.565
1207.6000, -55.998
1208.0000, -55.464
1208.4000, -55.176
1208.8000, -55.582
1209.2000, -56.029
1209.6000, -55.352
1210.0000, -55.353
1210.4000, -55.270
1210.8000, -55.493
1211.2000, -55.564
1211.6000, -55.386
1212.0000, -56.083
1212.4000, -55.869
1212.8000, -55.671
1213.2000, -55.236
1213.6000, -55.974
1214.0000, -55.843
1214.4000, -55.865
1214.8000, -55.323
1215.2000, -55.518
1215.6000, -55.288
1216.0000, -55.848
1216.4000, -55.123
1216.8000, -55.472
1217.2000, -55.718
1217.6000, -55.491
1218.0000, -55.747
1218.4000, -55.921
1218.8000, -56.094
1219.2000, -55.557
1219.6000, -55.558
1220.0000, -55.995
1220.4000, -56.052
1220.8000, -55.480
1221.2000, -55.636
1221.6000, -56.203
1222.0000, -56.060
1222.4000, -55.516
1222.8000, -55.333
1223.2000, -55.467
1223.6000, -56.633
1224.0000, -55.852
1224.4000, -55.888
1224.8000, -55.701
1225.2000, -56.401
1225.6000, -56.035
1226.0000, -56.888
1226.4000, -56.159
1226.8000, -56.476
1227.2000, -56.004
1227.6000, -55.957
1228.0000, -55.828
1228.4000, -56.073
1228.8000, -56.101
1229.2000, -56.025
1229.6000, -56.596
1230.0000, -56.636
1230.4000, -55.872
1230.8000, -56.275
1231.2000, -56.451
1231.6000, -56.029
1232.0000, -55.996
1232.4000, -56.062
1232.8000, -56.439
1233.2000, -56.392
1233.6000, -56.744
1234.0000, -56.058
1234.4000, -56.820
1234.8000, -56.351
1235.2000, -56.331
1235.6000, -56.393
1236.0000, -56.415
1236.4000, -56.552
1236.8000, -56.462
1237.2000, -56.617
1237.6000, -56.304
1238.0000, -56.752
1238.4000, -57.419
1238.8000, -56.657
1239.2000, -57.207
1239.6000, -57.124
1240.0000, -57.079
1240.4000, -56.426
1240.8000, -56.599
1241.2000, -56.386
1241.6000, -56.891
1242.0000, -56.256
1242.4000, -56.929
1242.8000, -56.281
1243.2000, -56.524
1243.6000, -57.019
1244.0000, -56.833
1244.4000, -57.139
1244.8000, -57.212
1245.2000, -56.735
1245.6000, -57.389
1246.0000, -57.256
1246.4000, -56.532
1246.8000, -56.506
1247.2000, -56.911
1247.6000, -56.729
1248.0000, -56.488
1248.4000, -56.579
1248.8000, -57.677
1249.2000, -57.469
1249.6000, -56.861
1250.0000, -57.196
1250.4000, -56.922
1250.8000, -56.965
1251.2000, -57.101
1251.6000, -57.807
1252.0000, -57.023
1252.4000, -57.220
1252.8000, -57.110
1253.2000, -57.488
1253.6000, -56.385
1254.0000, -57.261
1254.4000, -57.116
1254.8000, -57.202
1255.2000, -57.162
1255.6000, -57.332
1256.0000, -57.289
1256.4000, -57.624
1256.8000, -56.792
1257.2000, -57.156
1257.6000, -57.099
1258.0000, -56.866
1258.4000, -56.927
1258.8000, -57.431
1259.2000, -57.042
1259.6000, -57.210
1260.0000, -57.189
1260.4000, -57.787
1260.8000, -57.731
1261.2000, -58.305
1261.6000, -57.475
1262.0000, -58.003
1262.4000, -56.996
1262.8000, -57.151
1263.2000, -57.412
1263.6000, -57.122
1264.0000, -58.464
1264.4000, -57.708
1264.8000, -57.090
1265.2000, -57.338
1265.6000, -57.918
1266.0000, -57.006
1266.4000, -57.921
1266.8000, -57.513
1267.2000, -57.655
1267.6000, -58.026
1268.0000, -56.648
1268.4000, -57.239
1268.8000, -57.260
1269.2000, -57.200
1269.6000, -57.432
1270.0000, -57.548
1270.4000, -57.733
1270.8000, -57.689
1271.2000, -57.667
1271.6000, -57.260
1272.0000, -57.479
1272.4000, -58.202
1272.8000, -57.272
1273.2000, -58.221
1273.6000, -57.609
1274.0000, -58.132
1274.4000, -58.032
1274.8000, -57.361
1275.2000, -57.608
1275.6000, -58.103
1276.0000, -57.602
1276.4000, -58.172
1276.8000, -57.548
1277.2000, -58.218
1277.6000, -57.445
1278.0000, -57.661
1278.4000, -58.372
1278.8000, -58.017
1279.2000, -57.685
1279.6000, -57.581
1280.0000, -58.339
1280.4000, -58.360
1280.8000, -58.360
1281.2000, -58.214
1281.6000, -58.218
1282.0000, -58.803
1282.4000, -57.611
1282.8000, -57.808
1283.2000, -58.185
1283.6000, -58.220
1284.0000, -58.504
1284.4000, -58.381
1284.8000, -58.653
1285.2000, -58.312
1285.6000, -58.202
1286.0000, -58.829
1286.4000, -58.565
1286.8000, -58.224
1287.2000, -58.722
1287.6000, -58.497
1288.0000, -58.274
1288.4000, -58.244
1288.8000, -57.694
1289.2000, -58.073
1289.6000, -58.884
1290.0000, -58.829
1290.4000, -57.786
1290.8000, -58.294
1291.2000, -58.555
1291.6000, -58.527
1292.0000, -57.814
1292.4000, -58.683
1292.8000, -59.216
1293.2000, -58.323
1293.6000, -58.415
1294.0000, -58.763
1294.4000, -59.057
1294.8000, -58.530
1295.2000, -59.143
1295.6000, -58.450
1296.0000, -58.333
1296.4000, -58.516
1296.8000, -59.183
1297.2000, -58.108
1297.6000, -59.185
1298.0000, -58.261
1298.4000, -58.616
1298.8000, -58.471
1299.2000, -58.550
1299.6000, -59.541
1300.0000, -58.080
1300.4000, -58.918
1300.8000, -58.904
1301.2000, -58.334
1301.6000, -58.509
1302.0000, -58.830
1302.4000, -59.206
1302.8000, -58.413
1303.2000, -58.757
1303.6000, -58.892
1304.0000, -58.398
1304.4000, -58.578
1304.8000, -59.260
1305.2000, -58.794
1305.6000, -59.454
1306.0000, -58.662
1306.4000, -58.629
1306.8000, -59.073
1307.2000, -59.366
1307.6000, -58.875
1308.0000, -58.754
1308.4000, -59.259
1308.8000, -59.010
1309.2000, -59.063
1309.6000, -58.689
1310.0000, -59.527
1310.4000, -59.658
1310.8000, -59.097
1311.2000, -58.827
1311.6000, -58.621
1312.0000, -59.325
1312.4000, -58.947
1312.8000, -58.849
1313.2000, -59.328
1313.6000, -59.377
1314.0000, -59.186
1314.4000, -59.147
1314.8000, -59.078
1315.2000, -58.660
1315.6000, -58.786
1316.0000, -58.888
1316.4000, -58.985
1316.8000, -58.690
1317.2000, -59.532
1317.6000, -59.144
1318.0000, -59.946
1318.4000, -58.665
1318.8000, -59.739
1319.2000, -59.119
1319.6000, -58.941
1320.0000, -59.760
1320.4000, -59.053
1320.8000, -59.356
1321.2000, -59.452
1321.6000, -59.655
1322.0000, -59.055
1322.4000, -58.795
1322.8000, -59.411
1323.2000, -59.427
1323.6000, -58.787
1324.0000, -58.964
1324.4000, -59.826
1324.8000, -59.843
1325.2000, -59.166
1325.6000, -58.641
1326.0000, -59.218
1326.4000, -59.446
1326.8000, -58.881
1327.2000, -59.266
1327.6000, -59.218
1328.0000, -59.627
1328.4000, -58.902
1328.8000, -58.940
1329.2000, -59.062
1329.6000, -59.606
1330.0000, -59.168
1330.4000, -59.944
1330.8000, -59.933
1331.2000, -59.537
1331.6000, -59.373
1332.0000, -58.881
1332.4000, -59.185
1332.8000, -59.590
1333.2000, -59.119
1333.6000, -59.350
1334.0000, -60.195
1334.4000, -60.064
1334.8000, -60.287
1335.2000, -59.672
1335.6000, -59.810
1336.0000, -59.372
1336.4000, -59.587
1336.8000, -59.373
1337.2000, -59.926
1337.6000, -59.715
1338.0000, -59.033
1338.4000, -59.309
1338.8000, -59.229
1339.2000, -59.011
1339.6000, -59.525
1340.0000, -59.809
1340.4000, -59.707
1340.8000, -59.875
1341.2000, -59.487
1341.6000, -60.186
1342.0000, -58.910
1342.4000, -58.777
1342.8000, -59.877
1343.2000, -59.202
1343.6000, -59.238
1344.0000, -59.807
1344.4000, -59.536
1344.8000, -59.766
1345.2000, -59.599
1345.6000, -60.312
1346.0000, -59.389
1346.4000, -59.516
1346.8000, -59.805
1347.2000, -60.034
1347.6000, -59.680
1348.0000, -59.848
1348.4000, -59.168
1348.8000, -60.129
1349.2000, -59.892
1349.6000, -59.894
1350.0000, -59.753
1350.4000, -59.987
1350.8000, -60.228
1351.2000, -59.238
1351.6000, -59.930
1352.0000, -59.601
1352.4000, -59.426
1352.8000, -60.311
1353.2000, -59.646
1353.6000, -59.510
1354.0000, -59.235
1354.4000, -59.394
1354.8000, -59.586
1355.2000, -59.309
1355.6000, -60.334
1356.0000, -59.606
1356.4000, -59.542
1356.8000, -59.035
1357.2000, -60.012
1357.6000, -59.956
1358.0000, -59.959
1358.4000, -60.152
1358.8000, -60.186
1359.2000, -59.828
1359.6000, -59.658
1360.0000, -59.485
1360.4000, -59.808
1360.8000, -59.804
1361.2000, -59.553
1361.6000, -59.728
1362.0000, -59.845
1362.4000, -60.056
1362.8000, -59.745
1363.2000, -60.328
1363.6000, -59.999
1364.0000, -60.603
1364.4000, -60.446
1364.8000, -59.366
1365.2000, -60.088
1365.6000, -60.377
1366.0000, -60.243
1366.4000, -59.228
1366.8000, -59.454
1367.2000, -59.603
1367.6000, -60.469
1368.0000, -59.755
1368.4000, -60.601
1368.8000, -60.495
1369.2000, -59.745
1369.6000, -60.227
1370.0000, -60.640
1370.4000, -59.668
1370.8000, -59.769
1371.2000, -60.250
1371.6000, -59.700
1372.0000, -60.815
1372.4000, -60.319
1372.8000, -59.699
1373.2000, -61.040
1373.6000, -60.564
1374.0000, -60.430
1374.4000, -59.756
1374.8000, -59.819
1375.2000, -60.225
1375.6000, -60.250
1376.0000, -60.291
1376.4000, -60.033
1376.8000, -60.158
1377.2000, -59.990
1377.6000, -60.659
1378.0000, -60.417
1378.4000, -59.561
1378.8000, -60.367
1379.2000, -59.835
1379.6000, -59.729
1380.0000, -60.445
1380.4000, -59.525
1380.8000, -60.574
1381.2000, -59.970
1381.6000, -60.423
1382.0000, -59.849
1382.4000, -60.752
1382.8000, -59.612
1383.2000, -60.354
1383.6000, -60.326
1384.0000, -59.719
1384.4000, -59.603
1384.8000, -60.094
1385.2000, -60.119
1385.6000, -60.353
1386.0000, -60.054
1386.4000, -60.746
1386.8000, -60.761
1387.2000, -60.424
1387.6000, -60.180
1388.0000, -60.304
1388.4000, -60.174
1388.8000, -60.763
1389.2000, -59.693
1389.6000, -60.715
1390.0000, -60.098
1390.4000, -60.305
1390.8000, -60.559
1391.2000, -59.587
1391.6000, -60.365
1392.0000, -60.106
1392.4000, -60.844
1392.8000, -60.033
1393.2000, -61.291
1393.6000, -60.349
1394.0000, -59.656
1394.4000, -60.684
1394.8000, -60.845
1395.2000, -60.551
1395.6000, -60.531
1396.0000, -60.134
1396.4000, -59.840
1396.8000, -60.022
1397.2000, -60.595
1397.6000, -59.750
1398.0000, -60.021
1398.4000, -59.912
1398.8000, -59.756
1399.2000, -60.541
1399.6000, -61.058
1400.0000, -60.523
1400.4000, -60.651
1400.8000, -59.649
1401.2000, -59.894
1401.6000, -59.596
1402.0000, -60.685
1402.4000, -60.250
1402.8000, -60.188
1403.2000, -60.424
1403.6000, -60.628
1404.0000, -60.383
1404.4000, -60.012
1404.8000, -60.537
1405.2000, -60.187
1405.6000, -61.008
1406.0000, -60.356
1406.4000, -59.522
1406.8000, -59.909
1407.2000, -60.221
1407.6000, -60.834
1408.0000, -60.033
1408.4000, -59.619
1408.8000, -60.537
1409.2000, -59.568
1409.6000, -60.626
1410.0000, -60.284
1410.4000, -60.871
1410.8000, -60.156
1411.2000, -60.683
1411.6000, -60.138
1412.0000, -60.266
1412.4000, -59.403
1412.8000, -59.857
1413.2000, -60.948
1413.6000, -60.274
1414.0000, -59.940
1414.4000, -59.774
1414.8000, -59.879
1415.2000, -60.175
1415.6000, -60.175
1416.0000, -60.074
1416.4000, -60.964
1416.8000, -59.838
1417.2000, -60.364
1417.6000, -60.158
1418.0000, -59.983
1418.4000, -60.033
1418.8000, -60.123
1419.2000, -60.609
1419.6000, -60.401
1420.0000, -59.203
1420.4000, -60.327
1420.8000, -59.676
1421.2000, -60.121
1421.6000, -60.031
1422.0000, -60.007
1422.4000, -59.612
1422.8000, -59.760
1423.2000, -59.534
1423.6000, -60.331
1424.0000, -59.974
1424.4000, -60.003
1424.8000, -59.244
1425.2000, -59.758
1425.6000, -59.847
1426.0000, -59.558
1426.4000, -59.575
1426.8000, -59.065
1427.2000, -59.449
1427.6000, -59.588
1428.0000, -59.745
1428.4000, -59.494
1428.8000, -59.176
1429.2000, -59.148
1429.6000, -59.648
1430.0000, -58.791
1430.4000, -58.900
1430.8000, -58.993
1431.2000, -59.132
1431.6000, -59.049
1432.0000, -58.779
1432.4000, -59.075
1432.8000, -58.861
1433.2000, -58.539
1433.6000, -58.542
1434.0000, -58.681
1434.4000, -58.737
1434.8000, -58.672
1435.2000, -58.070
1435.6000, -58.498
1436.0000, -58.757
1436.4000, -58.358
1436.8000, -58.069
1437.2000, -58.194
1437.6000, -58.219
1438.0000, -58.081
1438.4000, -58.245
1438.8000, -58.114
1439.2000, -58.042
1439.6000, -57.979
1440.0000, -58.132
1440.4000, -57.937
1440.8000, -57.788
1441.2000, -58.005
1441.6000, -57.804
1442.0000, -57.892
1442.4000, -57.692
1442.8000, -57.620
1443.2000, -57.661
1443.6000, -57.376
1444.0000, -57.637
1444.4000, -57.230
1444.8000, -57.079
1445.2000, -57.357
1445.6000, -57.615
1446.0000, -57.299
1446.4000, -57.321
1446.8000, -57.205
1447.2000, -57.218
1447.6000, -56.889
1448.0000, -57.213
1448.4000, -57.039
1448.8000, -56.875
1449.2000, -56.739
1449.6000, -56.646
1450.0000, -56.584
1450.4000, -56.677
1450.8000, -56.653
1451.2000, -56.623
1451.6000, -56.412
1452.0000, -56.764
1452.4000, -56.375
1452.8000, -56.425
1453.2000, -56.672
1453.6000, -56.392
1454.0000, -56.325
1454.4000, -56.441
1454.8000, -56.210
1455.2000, -56.123
1455.6000, -56.095
1456.0000, -56.256
1456.4000, -56.053
1456.8000, -56.085
1457.2000, -56.173
1457.6000, -55.981
1458.0000, -55.920
1458.4000, -55.696
1458.8000, -55.628
1459.2000, -55.710
1459.6000, -55.804
1460.0000, -55.669
1460.4000, -55.486
1460.8000, -55.586
1461.2000, -55.580
1461.6000, -55.642
1462.0000, -55.716
1462.4000, -55.496
1462.8000, -55.396
1463.2000, -55.473
1463.6000, -55.493
1464.0000, -55.372
1464.4000, -55.267
1464.8000, -55.142
1465.2000, -55.129
1465.6000, -55.234
1466.0000, -55.142
1466.4000, -55.163
1466.8000, -54.931
1467.2000, -54.953
1467.6000, -54.954
1468.0000, -54.862
1468.4000, -54.811
1468.8000, -54.938
1469.2000, -54.837
1469.6000, -54.696
1470.0000, -54.602
1470.4000, -54.628
1470.8000, -54.589
1471.2000, -54.426
1471.6000, -54.460
1472.0000, -54.545
1472.4000, -54.410
1472.8000, -54.283
1473.2000, -54.314
1473.6000, -54.264
1474.0000, -54.205
1474.4000, -54.142
1474.8000, -54.044
1475.2000, -54.025
1475.6000, -53.967
1476.0000, -53.869
1476.4000, -53.905
1476.8000, -53.840
1477.2000, -53.693
1477.6000, -53.775
1478.0000, -53.627
1478.4000, -53.593
1478.8000, -53.572
1479.2000, -53.518
1479.6000, -53.510
1480.0000, -53.426
1480.4000, -53.332
1480.8000, -53.287
1481.2000, -53.371
1481.6000, -53.129
1482.0000, -53.109
1482.4000, -53.119
1482.8000, -53.096
1483.2000, -53.084
1483.6000, -52.958
1484.0000, -52.861
1484.4000, -52.893
1484.8000, -52.843
1485.2000, -52.780
1485.6000, -52.748
1486.0000, -52.667
1486.4000, -52.627
1486.8000, -52.516
1487.2000, -52.490
1487.6000, -52.423
1488.0000, -52.354
1488.4000, -52.271
1488.8000, -52.174
1489.2000, -52.098
1489.6000, -51.990
1490.0000, -51.997
1490.4000, -51.917
1490.8000, -51.928
1491.2000, -51.756
1491.6000, -51.714
1492.0000, -51.584
1492.4000, -51.599
1492.8000, -51.352
1493.2000, -51.318
1493.6000, -51.285
1494.0000, -51.171
1494.4000, -51.168
1494.8000, -50.959
1495.2000, -50.908
1495.6000, -50.721
1496.0000, -50.662
1496.4000, -50.540
1496.8000, -50.432
1497.2000, -50.311
1497.6000, -50.128
1498.0000, -50.100
1498.4000, -49.909
1498.8000, -49.814
1499.2000, -49.680
1499.6000, -49.532
1500.0000, -49.367
1500.4000, -49.240
1500.8000, -49.062
1501.2000, -48.912
1501.6000, -48.719
1502.0000, -48.593
1502.4000, -48.421
1502.8000, -48.245
1503.2000, -48.037
1503.6000, -47.912
1504.0000, -47.669
1504.4000, -47.508
1504.8000, -47.301
1505.2000, -47.093
1505.6000, -46.920
1506.0000, -46.715
1506.4000, -46.524
1506.8000, -46.283
1507.2000, -46.123
1507.6000, -45.867
1508.0000, -45.642
1508.4000, -45.402
1508.8000, -45.199
1509.2000, -44.974
1509.6000, -44.741
1510.0000, -44.518
1510.4000, -44.290
1510.8000, -44.068
1511.2000, -43.830
1511.6000, -43.600
1512.0000, -43.354
1512.4000, -43.120
1512.8000, -42.900
1513.2000, -42.665
1513.6000, -42.422
1514.0000, -42.196
1514.4000, -41.972
1514.8000, -41.733
1515.2000, -41.495
1515.6000, -41.260
1516.0000, -41.014
1516.4000, -40.790
1516.8000, -40.551
1517.2000, -40.318
1517.6000, -40.072
1518.0000, -39.835
1518.4000, -39.586
1518.8000, -39.342
1519.2000, -39.099
1519.6000, -38.851
1520.0000, -38.608
1520.4000, -38.363
1520.8000, -38.128
1521.2000, -37.882
1521.6000, -37.637
1522.0000, -37.394
1522.4000, -37.153
1522.8000, -36.909
1523.2000, -36.672
1523.6000, -36.432
1524.0000, -36.201
1524.4000, -35.968
1524.8000, -35.739
1525.2000, -35.508
1525.6000, -35.275
1526.0000, -35.044
1526.4000, -34.814
1526.8000, -34.584
1527.2000, -34.352
1527.6000, -34.120
1528.0000, -33.888
1528.4000, -33.654
1528.8000, -33.416
1529.2000, -33.169
1529.6000, -32.913
1530.0000, -32.647
1530.4000, -32.369
1530.8000, -32.081
1531.2000, -31.772
1531.6000, -31.447
1532.0000, -31.102
1532.4000, -30.734
1532.8000, -30.342
1533.2000, -29.921
1533.6000, -29.473
1534.0000, -29.001
1534.4000, -28.509
1534.8000, -27.999
1535.2000, -27.476
1535.6000, -26.945
1536.0000, -26.416
1536.4000, -25.891
1536.8000, -25.379
1537.2000, -24.878
1537.6000, -24.391
1538.0000, -23.920
1538.4000, -23.467
1538.8000, -23.029
1539.2000, -22.606
1539.6000, -22.193
1540.0000, -21.791
1540.4000, -21.400
1540.8000, -21.017
1541.2000, -20.642
1541.6000, -20.275
1542.0000, -19.917
1542.4000, -19.565
1542.8000, -19.222
1543.2000, -18.880
1543.6000, -18.547
1544.0000, -18.209
1544.4000, -17.886
1544.8000, -17.570
1545.2000, -17.262
1545.6000, -16.959
1546.0000, -16.663
1546.4000, -16.372
1546.8000, -16.087
1547.2000, -15.806
1547.6000, -15.528
1548.0000, -15.257
1548.4000, -14.994
1548.8000, -14.740
1549.2000, -14.495
1549.6000, -14.257
1550.0000, -14.028
1550.4000, -13.807
1550.8000, -13.591
1551.2000, -13.381
1551.6000, -13.177
1552.0000, -12.984
1552.4000, -12.801
1552.8000, -12.630
1553.2000, -12.470
1553.6000, -12.319
1554.0000, -12.179
1554.4000, -12.044
1554.8000, -11.915
1555.2000, -11.793
1555.6000, -11.676
1556.0000, -11.570
1556.4000, -11.473
1556.8000, -11.389
1557.2000, -11.313
1557.6000, -11.244
1558.0000, -11.182
1558.4000, -11.124
1558.8000, -11.073
1559.2000, -11.029
1559.6000, -10.992
1560.0000, -10.966
1560.4000, -10.949
1560.8000, -10.939
1561.2000, -10.932
1561.6000, -10.928
1562.0000, -10.924
1562.4000, -10.918
1562.8000, -10.916
1563.2000, -10.920
1563.6000, -10.930
1564.0000, -10.950
1564.4000, -10.974
1564.8000, -11.003
1565.2000, -11.036
1565.6000, -11.068
1566.0000, -11.099
1566.4000, -11.130
1566.8000, -11.168
1567.2000, -11.213
1567.6000, -11.265
1568.0000, -11.323
1568.4000, -11.385
1568.8000, -11.449
1569.2000, -11.511
1569.6000, -11.571
1570.0000, -11.632
1570.4000, -11.692
1570.8000, -11.754
1571.2000, -11.815
1571.6000, -11.873
1572.0000, -11.925
1572.4000, -11.968
1572.8000, -12.006
1573.2000, -12.042
1573.6000, -12.082
1574.0000, -12.127
1574.4000, -12.177
1574.8000, -12.231
1575.2000, -12.283
1575.6000, -12.334
1576.0000, -12.380
1576.4000, -12.422
1576.8000, -12.463
1577.2000, -12.509
1577.6000, -12.556
1578.0000, -12.603
1578.4000, -12.648
1578.8000, -12.693
1579.2000, -12.733
1579.6000, -12.768
1580.0000, -12.799
1580.4000, -12.821
1580.8000, -12.835
1581.2000, -12.842
1581.6000, -12.839
1582.0000, -12.830
1582.4000, -12.807
1582.8000, -12.775
1583.2000, -12.731
1583.6000, -12.681
1584.0000, -12.624
1584.4000, -12.563
1584.8000, -12.502
1585.2000, -12.444
1585.6000, -12.383
1586.0000, -12.324
1586.4000, -12.265
1586.8000, -12.208
1587.2000, -12.146
1587.6000, -12.078
1588.0000, -12.004
1588.4000, -11.930
1588.8000, -11.848
1589.2000, -11.766
1589.6000, -11.688
1590.0000, -11.620
1590.4000, -11.549
1590.8000, -11.479
1591.2000, -11.408
1591.6000, -11.337
1592.0000, -11.269
1592.4000, -11.208
1592.8000, -11.154
1593.2000, -11.108
1593.6000, -11.069
1594.0000, -11.038
1594.4000, -11.005
1594.8000, -10.971
1595.2000, -10.932
1595.6000, -10.891
1596.0000, -10.849
1596.4000, -10.811
1596.8000, -10.773
1597.2000, -10.744
1597.6000, -10.715
1598.0000, -10.687
1598.4000, -10.648
1598.8000, -10.606
1599.2000, -10.562
1599.6000, -10.518
1600.0000, -10.476
1600.4000, -10.439
1600.8000, -10.409
1601.2000, -10.387
1601.6000, -10.368
1602.0000, -10.354
1602.4000, -10.341
1602.8000, -10.331
1603.2000, -10.321
1603.6000, -10.312
1604.0000, -10.306
1604.4000, -10.295
1604.8000, -10.285
1605.2000, -10.278
1605.6000, -10.276
1606.0000, -10.274
1606.4000, -10.271
1606.8000, -10.265
1607.2000, -10.260
1607.6000, -10.251
1608.0000, -10.239
1608.4000, -10.221
1608.8000, -10.202
1609.2000, -10.184
1609.6000, -10.168
1610.0000, -10.152
1610.4000, -10.139
1610.8000, -10.126
1611.2000, -10.116
1611.6000, -10.103
1612.0000, -10.089
1612.4000, -10.067
1612.8000, -10.044
1613.2000, -10.017
1613.6000,  -9.994
1614.0000,  -9.970
1614.4000,  -9.947
1614.8000,  -9.924
1615.2000,  -9.904
1615.6000,  -9.882
1616.0000,  -9.859
1616.4000,  -9.832
1616.8000,  -9.807
1617.2000,  -9.783
1617.6000,  -9.758
1618.0000,  -9.735
1618.4000,  -9.715
1618.8000,  -9.700
1619.2000,  -9.684
1619.6000,  -9.670
1620.0000,  -9.659
1620.4000,  -9.649
1620.8000,  -9.638
1621.2000,  -9.634
1621.6000,  -9.633
1622.0000,  -9.642
1622.4000,  -9.651
1622.8000,  -9.670
1623.2000,  -9.691
1623.6000,  -9.718
1624.0000,  -9.746
1624.4000,  -9.776
1624.8000,  -9.808
1625.2000,  -9.844
1625.6000,  -9.883
1626.0000,  -9.930
1626.4000,  -9.984
1626.8000, -10.044
1627.2000, -10.114
1627.6000, -10.190
1628.0000, -10.273
1628.4000, -10.356
1628.8000, -10.449
1629.2000, -10.540
1629.6000, -10.641
1630.0000, -10.742
1630.4000, -10.853
1630.8000, -10.970
1631.2000, -11.096
1631.6000, -11.225
1632.0000, -11.366
1632.4000, -11.505
1632.8000, -11.650
1633.2000, -11.800
1633.6000, -11.951
1634.0000, -12.108
1634.4000, -12.271
1634.8000, -12.444
1635.2000, -12.624
1635.6000, -12.812
1636.0000, -13.006
1636.4000, -13.205
1636.8000, -13.401
1637.2000, -13.601
1637.6000, -13.797
1638.0000, -14.000
1638.4000, -14.200
1638.8000, -14.414
1639.2000, -14.629
1639.6000, -14.849
1640.0000, -15.072
1640.4000, -15.296
1640.8000, -15.520
1641.2000, -15.737
1641.6000, -15.951
1642.0000, -16.162
1642.4000, -16.375
1642.8000, -16.583
1643.2000, -16.798
1643.6000, -17.010
1644.0000, -17.226
1644.4000, -17.440
1644.8000, -17.652
1645.2000, -17.857
1645.6000, -18.057
1646.0000, -18.247
1646.4000, -18.437
1646.8000, -18.625
1647.2000, -18.815
1647.6000, -19.012
1648.0000, -19.217
1648.4000, -19.438
1648.8000, -19.668
1649.2000, -19.914
1649.6000, -20.167
1650.0000, -20.437
1650.4000, -20.714
1650.8000, -21.011
1651.2000, -21.322
1651.6000, -21.646
1652.0000, -21.990
1652.4000, -22.349
1652.8000, -22.717
1653.2000, -23.089
1653.6000, -23.465
1654.0000, -23.836
1654.4000, -24.198
1654.8000, -24.547
1655.2000, -24.887
1655.6000, -25.219
1656.0000, -25.549
1656.4000, -25.875
1656.8000, -26.199
1657.2000, -26.522
1657.6000, -26.839
1658.0000, -27.156
1658.4000, -27.458
1658.8000, -27.752
1659.2000, -28.034
1659.6000, -28.309
1660.0000, -28.581
1660.4000, -28.853
1660.8000, -29.122
1661.2000, -29.394
1661.6000, -29.672
1662.0000, -29.948
1662.4000, -30.226
1662.8000, -30.501
1663.2000, -30.778
1663.6000, -31.050
1664.0000, -31.325
1664.4000, -31.597
1664.8000, -31.872
1665.2000, -32.155
1665.6000, -32.444
1666.0000, -32.742
1666.4000, -33.044
1666.8000, -33.349
1667.2000, -33.657
1667.6000, -33.971
1668.0000, -34.289
1668.4000, -34.606
1668.8000, -34.921
1669.2000, -35.244
1669.6000, -35.571
1670.0000, -35.910
1670.4000, -36.255
1670.8000, -36.606
1671.2000, -36.962
1671.6000, -37.321
1672.0000, -37.694
1672.4000, -38.062
1672.8000, -38.434
1673.2000, -38.802
1673.6000, -39.193
1674.0000, -39.587
1674.4000, -39.982
1674.8000, -40.397
1675.2000, -40.825
1675.6000, -41.245
1676.0000, -41.669
1676.4000, -42.093
1676.8000, -42.481
1677.2000, -42.856
1677.6000, -43.204
1678.0000, -43.520
1678.4000, -43.815
1678.8000, -44.090
1679.2000, -44.350
1679.6000, -44.613
1680.0000, -44.875
1680.4000, -45.140
1680.8000, -45.404
1681.2000, -45.671
1681.6000, -45.973
1682.0000, -46.221
1682.4000, -46.528
1682.8000, -46.841
1683.2000, -47.110
1683.6000, -47.406
1684.0000, -47.727
1684.4000, -48.042
1684.8000, -48.298
1685.2000, -48.559
1685.6000, -48.863
1686.0000, -49.068
1686.4000, -49.301
1686.8000, -49.538
1687.2000, -49.741
1687.6000, -49.961
1688.0000, -50.200
1688.4000, -50.401
1688.8000, -50.594
1689.2000, -50.797
1689.6000, -51.019
1690.0000, -51.160
1690.4000, -51.321
1690.8000, -51.452
1691.2000, -51.584
1691.6000, -51.711
1692.0000, -51.993
1692.4000, -52.146
1692.8000, -52.389
1693.2000, -52.547
1693.6000, -52.855
1694.0000, -53.227
1694.4000, -53.575
1694.8000, -53.924
1695.2000, -54.386
1695.6000, -54.931
1696.0000, -55.220
1696.4000, -55.510
1696.8000, -55.901
1697.2000, -56.207
1697.6000, -56.004
1698.0000, -55.970
1698.4000, -55.971
1698.8000, -55.871
1699.2000, -55.823
1699.6000, -55.795
1700.0000, -55.638
1700.4000, -55.857
1700.8000, -55.949
1701.2000, -55.771
1701.6000, -56.161
1702.0000, -56.005
1702.4000, -56.286
1702.8000, -56.422
1703.2000, -56.508
1703.6000, -56.603
1704.0000, -56.767
1704.4000, -56.808
1704.8000, -57.165
1705.2000, -57.140
1705.6000, -57.319
1706.0000, -57.505
1706.4000, -57.671
1706.8000, -57.764
1707.2000, -57.635
1707.6000, -58.113
1708.0000, -57.976
1708.4000, -58.204
1708.8000, -58.373
1709.2000, -59.100
1709.6000, -58.708
1710.0000, -59.251
1710.4000, -59.570
1710.8000, -59.890
1711.2000, -60.269
1711.6000, -60.366
1712.0000, -60.068
1712.4000, -60.134
1712.8000, -60.227
1713.2000, -59.965
1713.6000, -59.676
1714.0000, -60.071
1714.4000, -60.059
1714.8000, -60.052
1715.2000, -60.104
1715.6000, -60.427
1716.0000, -60.075
1716.4000, -59.979
1716.8000, -60.264
1717.2000, -60.320
1717.6000, -59.953
1718.0000, -60.304
1718.4000, -60.361
1718.8000, -60.134
1719.2000, -60.307
1719.6000, -60.573
1720.0000, -60.813
1720.4000, -60.611
1720.8000, -60.786
1721.2000, -60.643
1721.6000, -60.570
1722.0000, -60.802
1722.4000, -60.905
1722.8000, -61.146
1723.2000, -61.272
1723.6000, -61.088
1724.0000, -61.238
1724.4000, -61.266
1724.8000, -61.164
1725.2000, -61.622
1725.6000, -61.260
1726.0000, -60.683
1726.4000, -60.903
1726.8000, -61.211
1727.2000, -61.193
1727.6000, -61.036
1728.0000, -61.391
1728.4000, -61.595
1728.8000, -61.357
1729.2000, -61.203
1729.6000, -61.337
1730.0000, -61.312
1730.4000, -61.335
1730.8000, -61.309
1731.2000, -60.976
1731.6000, -61.199
1732.0000, -61.134
1732.4000, -61.013
1732.8000, -61.085
1733.2000, -61.230
1733.6000, -61.675
1734.0000, -61.232
1734.4000, -61.161
1734.8000, -61.896
1735.2000, -61.469
1735.6000, -61.824
1736.0000, -61.581
1736.4000, -61.257
1736.8000, -61.683
1737.2000, -61.410
1737.6000, -61.136
1738.0000, -61.806
1738.4000, -61.360
1738.8000, -61.277
1739.2000, -61.125
1739.6000, -61.617
1740.0000, -61.216
1740.4000, -61.585
1740.8000, -61.014
1741.2000, -61.076
1741.6000, -61.186
1742.0000, -61.331
1742.4000, -61.038
1742.8000, -60.878
1743.2000, -61.175
1743.6000, -61.312
1744.0000, -61.288
1744.4000, -61.496
1744.8000, -61.781
1745.2000, -61.511
1745.6000, -61.636
1746.0000, -61.638
1746.4000, -61.280
1746.8000, -61.241
1747.2000, -61.166
1747.6000, -61.520
1748.0000, -61.339
1748.4000, -61.166
1748.8000, -61.162
1749.2000, -60.926
1749.6000, -61.237
1750.0000, -61.536
1750.4000, -61.694
1750.8000, -60.790
1751.2000, -61.110
1751.6000, -61.268
1752.0000, -61.360
1752.4000, -60.887
1752.8000, -61.583
1753.2000, -61.251
1753.6000, -61.465
1754.0000, -61.686
1754.4000, -61.339
1754.8000, -61.259
1755.2000, -61.143
1755.6000, -60.654
1756.0000, -61.502
1756.4000, -61.308
1756.8000, -61.094
1757.2000, -61.055
1757.6000, -61.495
1758.0000, -61.383
1758.4000, -61.059
1758.8000, -61.342
1759.2000, -60.921
1759.6000, -61.493
1760.0000, -61.414
1760.4000, -61.082
1760.8000, -60.720
1761.2000, -60.915
1761.6000, -60.800
1762.0000, -61.033
1762.4000, -61.000
1762.8000, -61.166
1763.2000, -60.733
1763.6000, -61.151
1764.0000, -61.058
1764.4000, -60.630
1764.8000, -60.910
1765.2000, -60.632
1765.6000, -60.867
1766.0000, -61.011
1766.4000, -60.724
1766.8000, -60.799
1767.2000, -60.506
1767.6000, -60.643
1768.0000, -60.648
1768.4000, -60.717
1768.8000, -60.762
1769.2000, -60.617
1769.6000, -60.859
1770.0000, -60.556
1770.4000, -60.562
1770.8000, -60.433
1771.2000, -60.789
1771.6000, -60.282
1772.0000, -60.769
1772.4000, -60.700
1772.8000, -60.373
1773.2000, -60.428
1773.6000, -60.196
1774.0000, -60.284
1774.4000, -60.314
1774.8000, -60.425
1775.2000, -60.101
1775.6000, -60.190
1776.0000, -60.066
1776.4000, -60.009
1776.8000, -60.409
1777.2000, -60.064
1777.6000, -59.554
1778.0000, -59.986
1778.4000, -59.797
1778.8000, -60.160
1779.2000, -59.744
1779.6000, -59.924
1780.0000, -60.108
1780.4000, -60.026
1780.8000, -59.727
1781.2000, -59.681
1781.6000, -59.997
1782.0000, -59.670
1782.4000, -59.575
1782.8000, -59.869
1783.2000, -59.639
1783.6000, -59.700
1784.0000, -59.351
1784.4000, -59.674
1784.8000, -59.930
1785.2000, -59.660
1785.6000, -59.516
1786.0000, -59.161
1786.4000, -59.320
1786.8000, -59.565
1787.2000, -59.564
1787.6000, -59.568
1788.0000, -59.519
1788.4000, -59.323
1788.8000, -59.425
1789.2000, -59.199
1789.6000, -58.990
1790.0000, -59.558
1790.4000, -59.340
1790.8000, -59.410
1791.2000, -59.125
1791.6000, -59.334
1792.0000, -59.441
1792.4000, -59.150
1792.8000, -59.350
1793.2000, -58.971
1793.6000, -59.286
1794.0000, -59.137
1794.4000, -59.384
1794.8000, -59.189
1795.2000, -59.061
1795.6000, -58.957
1796.0000, -58.936
1796.4000, -59.129
1796.8000, -58.968
1797.2000, -59.205
1797.6000, -58.977
1798.0000, -58.896
1798.4000, -59.071
1798.8000, -59.168
1799.2000, -59.041
1799.6000, -59.191
1800.0000, -58.721
1800.4000, -59.109
1800.8000, -59.026
1801.2000, -59.065
1801.6000, -59.014
1802.0000, -59.006
1802.4000, -59.223
1802.8000, -59.041
1803.2000, -58.996
1803.6000, -59.143
1804.0000, -58.701
1804.4000, -58.986
1804.8000, -58.904
1805.2000, -58.820
1805.6000, -59.123
1806.0000, -58.703
1806.4000, -58.804
1806.8000, -59.088
1807.2000, -58.945
1807.6000, -58.977
1808.0000, -58.829
1808.4000, -59.221
1808.8000, -58.938
1809.2000, -59.083
1809.6000, -59.102
1810.0000, -58.803
1810.4000, -58.907
1810.8000, -59.006
1811.2000, -59.133
1811.6000, -58.996
1812.0000, -59.161
1812.4000, -58.996
1812.8000, -58.952
1813.2000, -59.283
1813.6000, -59.132
1814.0000, -58.847
1814.4000, -58.854
1814.8000, -59.017
1815.2000, -59.152
1815.6000, -58.887
1816.0000, -58.968
1816.4000, -58.865
1816.8000, -59.073
1817.2000, -58.957
1817.6000, -58.861
1818.0000, -58.943
1818.4000, -58.916
1818.8000, -58.781
1819.2000, -58.917
1819.6000, -58.915
1820.0000, -58.863
1820.4000, -58.863
1820.8000, -58.818
1821.2000, -58.743
1821.6000, -58.772
1822.0000, -58.812
1822.4000, -59.069
1822.8000, -58.534
1823.2000, -58.652
1823.6000, -58.808
1824.0000, -58.789
1824.4000, -58.723
1824.8000, -58.875
1825.2000, -58.638
1825.6000, -58.452
1826.0000, -58.748
1826.4000, -58.797
1826.8000, -58.570
1827.2000, -58.769
1827.6000, -58.517
1828.0000, -58.596
1828.4000, -58.545
1828.8000, -58.794
1829.2000, -58.579
1829.6000, -58.568
1830.0000, -58.654
1830.4000, -58.551
1830.8000, -58.427
1831.2000, -58.678
1831.6000, -58.458
1832.0000, -58.480
1832.4000, -58.416
1832.8000, -58.306
1833.2000, -58.235
1833.6000, -58.338
1834.0000, -58.296
1834.4000, -58.324
1834.8000, -58.095
1835.2000, -58.166
1835.6000, -58.161
1836.0000, -58.093
1836.4000, -58.083
1836.8000, -58.034
1837.2000, -58.185
1837.6000, -57.973
1838.0000, -58.128
1838.4000, -58.039
1838.8000, -57.848
1839.2000, -57.822
1839.6000, -58.058
1840.0000, -57.879
1840.4000, -57.843
1840.8000, -57.828
1841.2000, -57.741
1841.6000, -57.623
1842.0000, -57.699
1842.4000, -57.820
1842.8000, -57.622
1843.2000, -57.421
1843.6000, -57.348
1844.0000, -57.282
1844.4000, -57.291
1844.8000, -57.340
1845.2000, -57.372
1845.6000, -57.339
1846.0000, -57.293
1846.4000, -57.257
1846.8000, -57.248
1847.2000, -57.196
1847.6000, -57.224
1848.0000, -57.156
1848.4000, -57.015
1848.8000, -57.082
1849.2000, -57.162
1849.6000, -56.853
1850.0000, -56.911
1850.4000, -56.918
1850.8000, -56.834
1851.2000, -56.677
1851.6000, -56.764
1852.0000, -56.860
1852.4000, -56.726
1852.8000, -56.630
1853.2000, -56.653
1853.6000, -56.802
1854.0000, -56.544
1854.4000, -56.667
1854.8000, -56.633
1855.2000, -56.580
1855.6000, -56.636
1856.0000, -56.541
1856.4000, -56.594
1856.8000, -56.501
1857.2000, -56.468
1857.6000, -56.497
1858.0000, -56.416
1858.4000, -56.445
1858.8000, -56.433
1859.2000, -56.439
1859.6000, -56.383
1860.0000, -56.459
1860.4000, -56.590
1860.8000, -56.462
1861.2000, -56.307
1861.6000, -56.366
1862.0000, -56.416
1862.4000, -56.282
1862.8000, -56.190
1863.2000, -56.220
1863.6000, -56.193
1864.0000, -56.031
1864.4000, -56.111
1864.8000, -56.019
1865.2000, -56.067
1865.6000, -55.992
1866.0000, -55.949
1866.4000, -55.949
1866.8000, -55.974
1867.2000, -55.781
1867.6000, -55.756
1868.0000, -55.567
1868.4000, -55.538
1868.8000, -55.523
1869.2000, -55.428
1869.6000, -55.362
1870.0000, -55.344
1870.4000, -55.244
1870.8000, -54.999
1871.2000, -55.045
1871.6000, -54.857
1872.0000, -54.797
1872.4000, -54.714
1872.8000, -54.649
1873.2000, -54.527
1873.6000, -54.414
1874.0000, -54.286
1874.4000, -54.243
1874.8000, -54.134
1875.2000, -53.980
1875.6000, -53.888
1876.0000, -53.777
1876.4000, -53.696
1876.8000, -53.498
1877.2000, -53.552
1877.6000, -53.396
1878.0000, -53.313
1878.4000, -53.183
1878.8000, -53.073
1879.2000, -52.915
1879.6000, -52.856
1880.0000, -52.802
1880.4000, -52.680
1880.8000, -52.707
1881.2000, -52.494
1881.6000, -52.440
1882.0000, -52.400
1882.4000, -52.274
1882.8000, -52.175
1883.2000, -52.108
1883.6000, -52.043
1884.0000, -52.028
1884.4000, -51.947
1884.8000, -51.871
1885.2000, -51.839
1885.6000, -51.805
1886.0000, -51.747
1886.4000, -51.729
1886.8000, -51.644
1887.2000, -51.631
1887.6000, -51.612
1888.0000, -51.567
1888.4000, -51.558
1888.8000, -51.533
1889.2000, -51.536
1889.6000, -51.442
1890.0000, -51.525
1890.4000, -51.475
1890.8000, -51.496
1891.2000, -51.474
1891.6000, -51.464
1892.0000, -51.470
1892.4000, -51.473
1892.8000, -51.476
1893.2000, -51.500
1893.6000, -51.492
1894.0000, -51.533
1894.4000, -51.521
1894.8000, -51.545
1895.2000, -51.561
1895.6000, -51.561
1896.0000, -51.560
1896.4000, -51.607
1896.8000, -51.631
1897.2000, -51.632
1897.6000, -51.648
1898.0000, -51.666
1898.4000, -51.631
1898.8000, -51.733
1899.2000, -51.695
1899.6000, -51.730
1900.0000, -51.691
1900.4000, -51.698
1900.8000, -51.738
1901.2000, -51.722
1901.6000, -51.717
1902.0000, -51.732
1902.4000, -51.722
1902.8000, -51.778
1903.2000, -51.749
1903.6000, -51.772
1904.0000, -51.765
1904.4000, -51.723
1904.8000, -51.763
1905.2000, -51.745
1905.6000, -51.715
1906.0000, -51.750
1906.4000, -51.712
1906.8000, -51.635
1907.2000, -51.633
1907.6000, -51.646
1908.0000, -51.659
1908.4000, -51.599
1908.8000, -51.588
1909.2000, -51.557
1909.6000, -51.547
1910.0000, -51.543
1910.4000, -51.469
1910.8000, -51.454
1911.2000, -51.470
1911.6000, -51.392
1912.0000, -51.388
1912.4000, -51.371
1912.8000, -51.324
1913.2000, -51.284
1913.6000, -51.252
1914.0000, -51.209
1914.4000, -51.176
1914.8000, -51.197
1915.2000, -51.129
1915.6000, -51.097
1916.0000, -51.061
1916.4000, -51.020
1916.8000, -51.004
1917.2000, -50.993
1917.6000, -50.938
1918.0000, -50.920
1918.4000, -50.882
1918.8000, -50.887
1919.2000, -50.852
1919.6000, -50.840
1920.0000, -50.843
1920.4000, -50.801
1920.8000, -50.777
1921.2000, -50.799
1921.6000, -50.758
1922.0000, -50.750
1922.4000, -50.690
1922.8000, -50.706
1923.2000, -50.696
1923.6000, -50.684
1924.0000, -50.673
1924.4000, -50.681
1924.8000, -50.652
1925.2000, -50.635
1925.6000, -50.620
1926.0000, -50.598
1926.4000, -50.597
1926.8000, -50.589
1927.2000, -50.617
1927.6000, -50.584
1928.0000, -50.555
1928.4000, -50.554
1928.8000, -50.560
1929.2000, -50.598
1929.6000, -50.488
1930.0000, -50.531
1930.4000, -50.530
1930.8000, -50.525
1931.2000, -50.491
1931.6000, -50.515
1932.0000, -50.497
1932.4000, -50.471
1932.8000, -50.477
1933.2000, -50.517
1933.6000, -50.482
1934.0000, -50.478
1934.4000, -50.484
1934.8000, -50.480
1935.2000, -50.494
1935.6000, -50.480
1936.0000, -50.485
1936.4000, -50.506
1936.8000, -50.513
1937.2000, -50.530
1937.6000, -50.482
1938.0000, -50.462
1938.4000, -50.495
1938.8000, -50.477
1939.2000, -50.511
1939.6000, -50.517
1940.0000, -50.516
1940.4000, -50.519
1940.8000, -50.559
1941.2000, -50.545
1941.6000, -50.582
1942.0000, -50.569
1942.4000, -50.630
1942.8000, -50.625
1943.2000, -50.661
1943.6000, -50.701
1944.0000, -50.713
1944.4000, -50.767
1944.8000, -50.766
1945.2000, -50.831
1945.6000, -50.876
1946.0000, -50.929
1946.4000, -50.956
1946.8000, -51.012
1947.2000, -51.116
1947.6000, -51.152
1948.0000, -51.212
1948.4000, -51.263
1948.8000, -51.374
1949.2000, -51.452
1949.6000, -51.490
1950.0000, -51.560
1950.4000, -51.686
1950.8000, -51.751
1951.2000, -51.859
1951.6000, -51.952
1952.0000, -52.053
1952.4000, -52.150
1952.8000, -52.251
1953.2000, -52.386
1953.6000, -52.494
1954.0000, -52.589
1954.4000, -52.691
1954.8000, -52.796
1955.2000, -52.968
1955.6000, -53.145
1956.0000, -53.218
1956.4000, -53.358
1956.8000, -53.455
1957.2000, -53.686
1957.6000, -53.743
1958.0000, -53.828
1958.4000, -53.992
1958.8000, -54.151
1959.2000, -54.294
1959.6000, -54.463
1960.0000, -54.575
1960.4000, -54.669
1960.8000, -54.852
1961.2000, -54.989
1961.6000, -55.062
1962.0000, -55.363
1962.4000, -55.428
1962.8000, -55.502
1963.2000, -55.608
1963.6000, -55.815
1964.0000, -56.118
1964.4000, -55.987
1964.8000, -56.260
1965.2000, -56.456
1965.6000, -56.568
1966.0000, -56.734
1966.4000, -56.748
1966.8000, -56.823
1967.2000, -57.038
1967.6000, -57.096
1968.0000, -57.307
1968.4000, -57.353
1968.8000, -57.562
1969.2000, -57.695
1969.6000, -57.795
1970.0000, -58.080
1970.4000, -58.061
1970.8000, -58.196
1971.2000, -58.243
1971.6000, -58.457
1972.0000, -58.433
1972.4000, -58.595
1972.8000, -58.544
1973.2000, -58.863
1973.6000, -59.070
1974.0000, -58.844
1974.4000, -59.162
1974.8000, -59.106
1975.2000, -59.186
1975.6000, -59.446
1976.0000, -59.551
1976.4000, -59.745
1976.8000, -59.688
1977.2000, -59.799
1977.6000, -59.918
1978.0000, -59.953
1978.4000, -60.136
1978.8000, -59.995
1979.2000, -60.335
1979.6000, -60.148
1980.0000, -60.222
1980.4000, -60.603
1980.8000, -60.460
1981.2000, -60.553
1981.6000, -60.202
1982.0000, -60.512
1982.4000, -60.415
1982.8000, -60.990
1983.2000, -60.664
1983.6000, -60.916
1984.0000, -60.871
1984.4000, -60.671
1984.8000, -61.047
1985.2000, -61.300
1985.6000, -60.904
1986.0000, -60.942
1986.4000, -60.846
1986.8000, -61.002
1987.2000, -60.954
1987.6000, -61.003
1988.0000, -60.990
1988.4000, -61.009
1988.8000, -61.076
1989.2000, -61.108
1989.6000, -60.958
1990.0000, -61.091
1990.4000, -60.764
1990.8000, -61.790
1991.2000, -61.202
1991.6000, -61.558
1992.0000, -61.622
1992.4000, -61.241
1992.8000, -61.148
1993.2000, -61.462
1993.6000, -61.694
1994.0000, -61.375
1994.4000, -61.394
1994.8000, -61.639
1995.2000, -61.237
1995.6000, -61.591
1996.0000, -61.442
1996.4000, -61.434
1996.8000, -61.434
1997.2000, -61.467
1997.6000, -61.442
1998.0000, -61.583
1998.4000, -61.415
1998.8000, -61.383
1999.2000, -61.711
1999.6000, -61.518
2000.0000, -61.484
2000.4000, -62.002
2000.8000, -61.679
2001.2000, -61.717
2001.6000, -61.438
2002.0000, -61.614
2002.4000, -61.675
2002.8000, -61.636
2003.2000, -61.634
2003.6000, -61.653
2004.0000, -61.759
2004.4000, -61.352
2004.8000, -61.594
2005.2000, -61.876
2005.6000, -61.619
2006.0000, -61.766
2006.4000, -61.771
2006.8000, -61.994
2007.2000, -61.479
2007.6000, -61.677
2008.0000, -61.847
2008.4000, -61.960
2008.8000, -61.969
2009.2000, -61.791
2009.6000, -61.633
2010.0000, -61.777
2010.4000, -61.919
2010.8000, -61.661
2011.2000, -61.375
2011.6000, -62.217
2012.0000, -61.683
2012.4000, -61.807
2012.8000, -61.700
2013.2000, -61.529
2013.6000, -61.500
2014.0000, -61.841
2014.4000, -62.176
2014.8000, -61.851
2015.2000, -61.818
2015.6000, -61.757
2016.0000, -61.801
2016.4000, -61.951
2016.8000, -61.861
2017.2000, -61.823
2017.6000, -61.536
2018.0000, -61.681
2018.4000, -61.742
2018.8000, -61.411
2019.2000, -61.737
2019.6000, -61.723
2020.0000, -61.994
2020.4000, -61.600
2020.8000, -61.929
2021.2000, -61.679
2021.6000, -61.835
2022.0000, -61.824
2022.4000, -61.903
2022.8000, -61.563
2023.2000, -61.402
2023.6000, -61.630
2024.0000, -61.614
2024.4000, -61.682
2024.8000, -62.206
2025.2000, -61.975
2025.6000, -61.898
2026.0000, -61.543
2026.4000, -61.324
2026.8000, -61.714
2027.2000, -61.179
2027.6000, -61.735
2028.0000, -61.758
2028.4000, -61.529
2028.8000, -61.825
2029.2000, -61.419
2029.6000, -61.592
2030.0000, -61.781
2030.4000, -62.003
2030.8000, -61.570
2031.2000, -61.565
2031.6000, -61.704
2032.0000, -61.553
2032.4000, -61.653
2032.8000, -61.664
2033.2000, -61.759
2033.6000, -61.416
2034.0000, -61.437
2034.4000, -61.323
2034.8000, -61.226
2035.2000, -61.874
2035.6000, -61.463
2036.0000, -61.587
2036.4000, -61.433
2036.8000, -61.255
2037.2000, -61.295
2037.6000, -61.116
2038.0000, -61.329
2038.4000, -61.420
2038.8000, -61.435
2039.2000, -61.183
2039.6000, -61.083
2040.0000, -61.236
2040.4000, -61.138
2040.8000, -60.809
2041.2000, -60.775
2041.6000, -61.261
2042.0000, -61.175
2042.4000, -60.576
2042.8000, -60.446
2043.2000, -60.505
2043.6000, -60.575
2044.0000, -60.392
2044.4000, -60.313
2044.8000, -60.397
2045.2000, -60.352
2045.6000, -59.806
2046.0000, -59.831
2046.4000, -59.573
2046.8000, -59.724
2047.2000, -59.640
2047.6000, -59.329
2048.0000, -59.424
2048.4000, -59.458
2048.8000, -58.913
2049.2000, -59.056
2049.6000, -58.838
2050.0000, -58.917
2050.4000, -58.714
2050.8000, -58.451
2051.2000, -58.558
2051.6000, -58.579
2052.0000, -58.306
2052.4000, -58.357
2052.8000, -58.402
2053.2000, -58.218
2053.6000, -58.068
2054.0000, -58.187
2054.4000, -58.228
2054.8000, -58.073
2055.2000, -57.903
2055.6000, -57.805
2056.0000, -57.908
2056.4000, -57.770
2056.8000, -57.806
2057.2000, -57.689
2057.6000, -57.728
2058.0000, -57.820
2058.4000, -57.723
2058.8000, -57.753
2059.2000, -57.670
2059.6000, -57.782
2060.0000, -57.807
2060.4000, -57.703
2060.8000, -57.862
2061.2000, -57.951
2061.6000, -57.961
2062.0000, -57.843
2062.4000, -57.956
2062.8000, -57.962
2063.2000, -58.031
2063.6000, -58.016
2064.0000, -58.157
2064.4000, -58.110
2064.8000, -58.162
2065.2000, -58.128
2065.6000, -58.309
2066.0000, -58.441
2066.4000, -58.397
2066.8000, -58.399
2067.2000, -58.599
2067.6000, -58.532
2068.0000, -58.458
2068.4000, -58.564
2068.8000, -58.743
2069.2000, -58.373
2069.6000, -58.611
2070.0000, -58.637
2070.4000, -58.858
2070.8000, -58.638
2071.2000, -58.860
2071.6000, -58.574
2072.0000, -58.868
2072.4000, -58.688
2072.8000, -58.537
2073.2000, -59.033
2073.6000, -58.809
2074.0000, -58.940
2074.4000, -58.858
2074.8000, -58.765
2075.2000, -58.949
2075.6000, -58.801
2076.0000, -58.487
2076.4000, -58.813
2076.8000, -58.734
2077.2000, -58.679
2077.6000, -58.550
2078.0000, -58.820
2078.4000, -58.531
2078.8000, -58.490
2079.2000, -58.422
2079.6000, -58.352
2080.0000, -58.487
2080.4000, -58.243
2080.8000, -58.261
2081.2000, -58.373
2081.6000, -58.251
2082.0000, -58.117
2082.4000, -57.980
2082.8000, -57.924
2083.2000, -57.974
2083.6000, -57.781
2084.0000, -57.876
2084.4000, -57.786
2084.8000, -57.668
2085.2000, -57.902
2085.6000, -57.719
2086.0000, -57.726
2086.4000, -57.622
2086.8000, -57.566
2087.2000, -57.600
2087.6000, -57.461
2088.0000, -57.521
2088.4000, -57.422
2088.8000, -57.437
2089.2000, -57.368
2089.6000, -57.208
2090.0000, -57.330
2090.4000, -57.258
2090.8000, -57.218
2091.2000, -57.288
2091.6000, -57.199
2092.0000, -57.222
2092.4000, -57.241
2092.8000, -57.244
2093.2000, -57.107
2093.6000, -57.066
2094.0000, -57.071
2094.4000, -57.075
2094.8000, -57.107
2095.2000, -56.968
2095.6000, -57.021
2096.0000, -57.026
2096.4000, -57.060
2096.8000, -56.974
2097.2000, -56.865
2097.6000, -56.947
2098.0000, -56.840
2098.4000, -56.954
2098.8000, -56.979
2099.2000, -56.872
2099.6000, -56.784
2100.0000, -57.015
2100.4000, -56.762
2100.8000, -56.815
2101.2000, -56.829
2101.6000, -56.753
2102.0000, -56.799
2102.4000, -56.752
2102.8000, -56.630
2103.2000, -56.752
2103.6000, -56.682
2104.0000, -56.751
2104.4000, -56.714
2104.8000, -56.690
2105.2000, -56.706
2105.6000, -56.679
2106.0000, -56.661
2106.4000, -56.597
2106.8000, -56.634
2107.2000, -56.580
2107.6000, -56.573
2108.0000, -56.592
2108.4000, -56.438
2108.8000, -56.507
2109.2000, -56.600
2109.6000, -56.631
2110.0000, -56.649
2110.4000, -56.590
2110.8000, -56.720
2111.2000, -56.764
2111.6000, -56.812
2112.0000, -56.739
2112.4000, -56.904
2112.8000, -56.836
2113.2000, -56.949
2113.6000, -56.865
2114.0000, -57.150
2114.4000, -57.087
2114.8000, -57.364
2115.2000, -57.398
2115.6000, -57.373
2116.0000, -57.583
2116.4000, -57.627
2116.8000, -57.805
2117.2000, -57.730
2117.6000, -57.987
2118.0000, -58.084
2118.4000, -58.100
2118.8000, -58.178
2119.2000, -58.257
2119.6000, -58.390
2120.0000, -58.808
2120.4000, -58.662
2120.8000, -59.016
2121.2000, -59.106
2121.6000, -59.167
2122.0000, -59.233
2122.4000, -59.421
2122.8000, -59.508
2123.2000, -59.795
2123.6000, -59.803
2124.0000, -59.851
2124.4000, -60.413
2124.8000, -60.320
2125.2000, -59.974
2125.6000, -60.568
2126.0000, -60.211
2126.4000, -60.516
2126.8000, -60.878
2127.2000, -61.255
2127.6000, -61.335
2128.0000, -61.157
2128.4000, -61.652
2128.8000, -61.411
2129.2000, -60.878
2129.6000, -61.417
2130.0000, -61.685
2130.4000, -61.373
2130.8000, -61.729
2131.2000, -61.775
2131.6000, -61.754
2132.0000, -61.874
2132.4000, -61.985
2132.8000, -61.764
2133.2000, -62.118
2133.6000, -62.195
2134.0000, -62.322
2134.4000, -61.777
2134.8000, -62.403
2135.2000, -62.403
2135.6000, -62.617
2136.0000, -62.251
2136.4000, -62.197
2136.8000, -62.461
2137.2000, -62.675
2137.6000, -63.008
2138.0000, -62.264
2138.4000, -63.051
2138.8000, -62.305
2139.2000, -62.555
2139.6000, -62.687
2140.0000, -62.517
2140.4000, -62.756
2140.8000, -62.413
2141.2000, -63.137
2141.6000, -63.482
2142.0000, -62.585
2142.4000, -63.043
2142.8000, -63.214
2143.2000, -62.603
2143.6000, -62.547
2144.0000, -62.890
2144.4000, -63.133
2144.8000, -63.334
2145.2000, -62.960
2145.6000, -63.391
2146.0000, -62.873
2146.4000, -63.949
2146.8000, -63.027
2147.2000, -62.925
2147.6000, -63.792
2148.0000, -63.651
2148.4000, -63.060
2148.8000, -63.066
2149.2000, -62.653
2149.6000, -63.257
2150.0000, -62.527
2150.4000, -62.581
2150.8000, -63.288
2151.2000, -63.285
2151.6000, -63.127
2152.0000, -63.336
2152.4000, -63.025
2152.8000, -62.579
2153.2000, -63.780
2153.6000, -63.016
2154.0000, -63.329
2154.4000, -63.020
2154.8000, -62.964
2155.2000, -62.812
2155.6000, -63.715
2156.0000, -63.217
2156.4000, -63.384
2156.8000, -62.722
2157.2000, -63.533
2157.6000, -63.280
2158.0000, -63.502
2158.4000, -62.882
2158.8000, -63.336
2159.2000, -63.396
2159.6000, -63.153
2160.0000, -62.832
2160.4000, -63.533
2160.8000, -64.535
2161.2000, -62.721
2161.6000, -63.193
2162.0000, -63.229
2162.4000, -62.948
2162.8000, -63.019
2163.2000, -63.214
2163.6000, -62.975
2164.0000, -63.557
2164.4000, -62.587
2164.8000, -62.454
2165.2000, -62.706
2165.6000, -63.289
2166.0000, -63.406
2166.4000, -63.399
2166.8000, -62.935
2167.2000, -63.267
2167.6000, -62.568
2168.0000, -63.406
2168.4000, -62.982
2168.8000, -62.751
2169.2000, -63.606
2169.6000, -62.576
2170.0000, -63.167
2170.4000, -63.365
2170.8000, -63.235
2171.2000, -63.084
2171.6000, -63.453
2172.0000, -62.724
2172.4000, -63.140
2172.8000, -62.936
2173.2000, -63.277
2173.6000, -63.478
2174.0000, -62.910
2174.4000, -63.069
2174.8000, -63.311
2175.2000, -62.997
2175.6000, -63.140
2176.0000, -62.699
2176.4000, -63.066
2176.8000, -62.518
2177.2000, -62.918
2177.6000, -63.160
2178.0000, -63.120
2178.4000, -62.849
2178.8000, -62.942
2179.2000, -63.229
2179.6000, -63.009
2180.0000, -63.090
2180.4000, -63.404
2180.8000, -63.754
2181.2000, -62.744
2181.6000, -63.130
2182.0000, -63.087
2182.4000, -63.853
2182.8000, -62.907
2183.2000, -63.583
2183.6000, -63.537
2184.0000, -62.866
2184.4000, -63.146
2184.8000, -62.533
2185.2000, -63.045
2185.6000, -62.810
2186.0000, -62.856
2186.4000, -63.194
2186.8000, -63.663
2187.2000, -63.073
2187.6000, -63.332
2188.0000, -63.147
2188.4000, -63.713
2188.8000, -62.889
2189.2000, -62.966
2189.6000, -63.343
2190.0000, -63.269
2190.4000, -62.762
2190.8000, -63.279
2191.2000, -62.809
2191.6000, -63.119
2192.0000, -62.540
2192.4000, -62.939
2192.8000, -62.303
2193.2000, -62.908
2193.6000, -63.401
2194.0000, -63.836
2194.4000, -62.982
2194.8000, -62.619
2195.2000, -63.062
2195.6000, -62.727
2196.0000, -62.815
2196.4000, -63.086
2196.8000, -63.021
2197.2000, -63.301
2197.6000, -62.598
2198.0000, -63.452
2198.4000, -63.250
2198.8000, -62.765
2199.2000, -63.185
2199.6000, -62.980
2200.0000, -62.727
2200.4000, -63.125
2200.8000, -63.619
2201.2000, -62.766
2201.6000, -63.424
2202.0000, -62.337
2202.4000, -63.351
2202.8000, -62.818
2203.2000, -62.508
2203.6000, -62.530
2204.0000, -62.633
2204.4000, -63.392
2204.8000, -62.704
2205.2000, -62.895
2205.6000, -62.937
2206.0000, -63.398
2206.4000, -62.967
2206.8000, -62.658
2207.2000, -62.491
2207.6000, -63.564
2208.0000, -62.454
2208.4000, -62.872
2208.8000, -63.052
2209.2000, -62.651
2209.6000, -62.369
2210.0000, -62.941
2210.4000, -63.056
2210.8000, -62.894
2211.2000, -62.747
2211.6000, -62.616
2212.0000, -63.386
2212.4000, -62.777
2212.8000, -62.980
2213.2000, -63.034
2213.6000, -63.037
2214.0000, -62.379
2214.4000, -62.765
2214.8000, -63.224
2215.2000, -62.823
2215.6000, -62.793
2216.0000, -62.539
2216.4000, -62.648
2216.8000, -62.787
2217.2000, -62.756
2217.6000, -62.605
2218.0000, -63.734
2218.4000, -62.249
2218.8000, -62.472
2219.2000, -62.676
2219.6000, -62.495
2220.0000, -62.758
2220.4000, -75.140
2220.8000, -67.934
2221.2000, -72.150
2221.6000, -70.207
2222.0000, -74.288
2222.4000, -70.412
2222.8000, -71.846
2223.2000, -72.079
2223.6000, -70.428
2224.0000, -80.326
2224.4000, -68.273
2224.8000, -75.689
2225.2000, -68.269
2225.6000, -73.797
2226.0000, -73.868
2226.4000, -67.094
2226.8000, -73.381
2227.2000, -68.205
2227.6000, -71.063
2228.0000, -73.838
2228.4000, -69.604
2228.8000, -69.776
2229.2000, -70.759
2229.6000, -68.807
2230.0000, -72.687
2230.4000, -67.587
2230.8000, -78.108
2231.2000, -67.438
2231.6000, -74.537
2232.0000, -68.099
2232.4000, -74.035
2232.8000, -71.871
2233.2000, -69.598
2233.6000, -67.710
2234.0000, -78.173
2234.4000, -70.160
2234.8000, -73.766
2235.2000, -76.998
2235.6000, -68.375
2236.0000, -75.295
2236.4000, -69.622
2236.8000, -69.286
2237.2000, -70.835
2237.6000, -72.904
2238.0000, -68.669
2238.4000, -69.288
2238.8000, -76.800
2239.2000, -70.325
2239.6000, -71.549
2240.0000, -74.434
2240.4000, -70.545
2240.8000, -69.682
2241.2000, -75.840
2241.6000, -74.604
2242.0000, -72.418
2242.4000, -69.464
2242.8000, -70.829
2243.2000, -72.419
2243.6000, -68.687
2244.0000, -69.701
2244.4000, -71.932
2244.8000, -75.011
2245.2000, -69.423
2245.6000, -72.148
2246.0000, -69.241
2246.4000, -69.923
2246.8000, -71.073
2247.2000, -70.611
2247.6000, -68.406
2248.0000, -71.208
2248.4000, -68.922
2248.8000, -70.985
2249.2000, -68.566
2249.6000, -69.183
2250.0000, -70.466
2250.4000, -69.639
2250.8000, -68.226
2251.2000, -73.830
2251.6000, -78.993
2252.0000, -69.710
2252.4000, -71.774
2252.8000, -70.333
2253.2000, -68.428
2253.6000, -68.756
2254.0000, -69.283
2254.4000, -73.034
2254.8000, -69.091
2255.2000, -72.066
2255.6000, -67.356
2256.0000, -68.359
2256.4000, -71.349
2256.8000, -68.398
2257.2000, -70.266
2257.6000, -77.187
2258.0000, -71.771
2258.4000, -68.905
2258.8000, -79.705
2259.2000, -71.192
2259.6000, -70.274
2260.0000, -70.463
2260.4000, -77.789
2260.8000, -71.635
2261.2000, -71.850
2261.6000, -73.239
2262.0000, -71.840
2262.4000, -72.524
2262.8000, -68.931
2263.2000, -70.307
2263.6000, -69.735
2264.0000, -68.617
2264.4000,-210.000
2264.8000, -71.236
2265.2000, -71.184
2265.6000, -66.236
2266.0000, -72.359
2266.4000, -69.336
2266.8000, -77.313
2267.2000, -69.226
2267.6000, -69.285
2268.0000,-210.000
2268.4000, -72.238
2268.8000, -69.456
2269.2000, -69.049
2269.6000, -70.494
2270.0000, -73.992
2270.4000, -74.639
2270.8000, -73.312
2271.2000, -70.702
2271.6000,-210.000
2272.0000, -70.455
2272.4000, -70.067
2272.8000, -67.358
2273.2000, -75.043
2273.6000, -67.502
2274.0000, -70.610
2274.4000, -69.099
2274.8000, -71.276
2275.2000, -78.125
2275.6000, -72.228
2276.0000, -71.030
2276.4000, -68.962
2276.8000, -66.726
2277.2000, -73.311
2277.6000, -69.286
2278.0000, -71.988
2278.4000, -72.419
2278.8000, -74.102
2279.2000, -68.452
2279.6000, -68.087
2280.0000, -67.929
2280.4000, -76.951
2280.8000, -84.506
2281.2000, -67.566
2281.6000, -71.718
2282.0000, -69.399
2282.4000, -71.454
2282.8000,-210.000
2283.2000, -69.587
2283.6000, -72.050
2284.0000, -70.504
2284.4000, -68.283
2284.8000, -73.533
2285.2000, -75.560
2285.6000, -72.411
2286.0000, -75.246
2286.4000, -72.173
2286.8000, -67.013
2287.2000, -72.673
2287.6000, -67.762
2288.0000,-210.000
2288.4000, -72.484
2288.8000, -71.789
2289.2000, -69.027
2289.6000, -68.640
2290.0000, -70.474
2290.4000, -70.152
2290.8000, -67.601
2291.2000, -68.194
2291.6000, -71.402
2292.0000, -71.929
2292.4000, -69.235
2292.8000, -70.626
2293.2000, -73.195
2293.6000, -75.060
2294.0000, -69.093
2294.4000, -70.919
2294.8000, -74.997
2295.2000, -72.702
2295.6000, -68.746
2296.0000, -70.895
2296.4000, -70.516
2296.8000, -66.622
2297.2000, -75.924
2297.6000, -73.040
2298.0000, -72.141
2298.4000, -68.397
2298.8000, -73.218
2299.2000, -70.578
2299.6000, -70.008
2300.0000, -69.977
