75ECSV 	
// AQ6375E OPTICAL SPECTRUM ANALYZER //
40
"CTRWL",1650.000000
"SPAN",1300.000000
"START WL",1000.000000
"STOP WL",2300.000000
"WLFREQ", 0
"REFL", -9.6
"LSCL",10.0
"RESLN",2.000
"CUSTOM RES",0
"AVG",   1
"SMPLAUTO",      0
"SMPL",       3251
"SMPLINTVL",0.4000
"NORMAL"
"SENS LEVEL",-67.0
"MEAS"
"LSUNT",0
"NMSKH","OFF"
"RESCOR",0
"SMOOTH",0
"MEASWL",1
"MODELNAME",AQ6375E
"NEBWCAL0",    0
"NEBWCAL1",    0
"NEBWCALWL",   0
"RESCAL0_0",   9977
"RESCAL0_1",      0
"RESCAL0_2",      0
"RESCAL1_0",   9977
"RESCAL1_1",      0
"RESCAL1_2",      0









"[TRACE DATA]"
1000.0000, -50.464
1000.4000, -50.131
1000.8000, -50.703
1001.2000, -50.097
1001.6000, -50.692
1002.0000, -50.252
1002.4000, -49.678
1002.8000, -50.542
1003.2000, -50.324
1003.6000, -50.141
1004.0000, -50.563
1004.4000, -50.460
1004.8000, -50.235
1005.2000, -50.504
1005.6000, -50.171
1006.0000, -50.416
1006.4000, -50.172
1006.8000, -49.909
1007.2000, -50.378
1007.6000, -50.210
1008.0000, -50.480
1008.4000, -50.744
1008.8000, -50.153
1009.2000, -50.407
1009.6000, -50.872
1010.0000, -50.616
1010.4000, -50.191
1010.8000, -50.539
1011.2000, -51.028
1011.6000, -50.242
1012.0000, -50.892
1012.4000, -50.789
1012.8000, -50.088
1013.2000, -50.238
1013.6000, -50.353
1014.0000, -50.791
1014.4000, -50.410
1014.8000, -50.601
1015.2000, -50.341
1015.6000, -50.557
1016.0000, -50.638
1016.4000, -50.679
1016.8000, -50.989
1017.2000, -50.970
1017.6000, -50.813
1018.0000, -50.659
1018.4000, -51.094
1018.8000, -50.335
1019.2000, -50.567
1019.6000, -50.512
1020.0000, -51.041
1020.4000, -50.603
1020.8000, -50.527
1021.2000, -51.054
1021.6000, -50.477
1022.0000, -50.712
1022.4000, -50.625
1022.8000, -50.942
1023.2000, -50.622
1023.6000, -50.736
1024.0000, -50.697
1024.4000, -50.727
1024.8000, -50.971
1025.2000, -50.839
1025.6000, -50.881
1026.0000, -51.177
1026.4000, -50.445
1026.8000, -50.834
1027.2000, -51.277
1027.6000, -50.263
1028.0000, -51.008
1028.4000, -50.499
1028.8000, -50.801
1029.2000, -51.283
1029.6000, -51.409
1030.0000, -50.658
1030.4000, -50.776
1030.8000, -50.638
1031.2000, -51.052
1031.6000, -51.491
1032.0000, -51.133
1032.4000, -50.769
1032.8000, -51.097
1033.2000, -50.827
1033.6000, -51.139
1034.0000, -51.140
1034.4000, -51.035
1034.8000, -51.114
1035.2000, -51.363
1035.6000, -51.111
1036.0000, -50.627
1036.4000, -50.867
1036.8000, -50.971
1037.2000, -51.157
1037.6000, -50.772
1038.0000, -51.697
1038.4000, -51.104
1038.8000, -51.036
1039.2000, -50.858
1039.6000, -51.188
1040.0000, -51.508
1040.4000, -51.220
1040.8000, -51.198
1041.2000, -51.618
1041.6000, -50.574
1042.0000, -51.256
1042.4000, -51.120
1042.8000, -50.994
1043.2000, -51.266
1043.6000, -51.085
1044.0000, -51.309
1044.4000, -51.217
1044.8000, -51.389
1045.2000, -51.267
1045.6000, -51.445
1046.0000, -51.104
1046.4000, -51.509
1046.8000, -51.319
1047.2000, -51.523
1047.6000, -51.647
1048.0000, -51.178
1048.4000, -51.392
1048.8000, -51.384
1049.2000, -51.574
1049.6000, -51.542
1050.0000, -51.334
1050.4000, -51.389
1050.8000, -51.896
1051.2000, -51.505
1051.6000, -51.241
1052.0000, -51.682
1052.4000, -51.679
1052.8000, -51.356
1053.2000, -52.070
1053.6000, -51.162
1054.0000, -51.355
1054.4000, -51.537
1054.8000, -51.399
1055.2000, -51.364
1055.6000, -51.547
1056.0000, -51.976
1056.4000, -51.906
1056.8000, -51.205
1057.2000, -51.296
1057.6000, -51.307
1058.0000, -51.717
1058.4000, -51.273
1058.8000, -52.038
1059.2000, -51.305
1059.6000, -51.572
1060.0000, -51.424
1060.4000, -51.344
1060.8000, -51.290
1061.2000, -51.507
1061.6000, -51.729
1062.0000, -51.592
1062.4000, -51.250
1062.8000, -51.625
1063.2000, -51.290
1063.6000, -52.007
1064.0000, -51.766
1064.4000, -51.701
1064.8000, -51.212
1065.2000, -52.165
1065.6000, -51.807
1066.0000, -52.069
1066.4000, -51.547
1066.8000, -51.756
1067.2000, -51.690
1067.6000, -51.848
1068.0000, -51.803
1068.4000, -51.585
1068.8000, -51.378
1069.2000, -52.250
1069.6000, -52.453
1070.0000, -51.653
1070.4000, -51.542
1070.8000, -51.844
1071.2000, -52.334
1071.6000, -51.812
1072.0000, -51.963
1072.4000, -51.936
1072.8000, -51.801
1073.2000, -51.626
1073.6000, -51.718
1074.0000, -52.183
1074.4000, -51.577
1074.8000, -51.763
1075.2000, -52.021
1075.6000, -51.596
1076.0000, -51.743
1076.4000, -51.549
1076.8000, -51.868
1077.2000, -52.127
1077.6000, -51.595
1078.0000, -51.646
1078.4000, -52.035
1078.8000, -51.853
1079.2000, -52.136
1079.6000, -51.666
1080.0000, -51.648
1080.4000, -51.925
1080.8000, -51.837
1081.2000, -52.264
1081.6000, -52.220
1082.0000, -51.651
1082.4000, -51.754
1082.8000, -52.151
1083.2000, -52.381
1083.6000, -51.971
1084.0000, -52.033
1084.4000, -52.221
1084.8000, -52.074
1085.2000, -51.977
1085.6000, -51.766
1086.0000, -51.950
1086.4000, -52.050
1086.8000, -51.952
1087.2000, -51.910
1087.6000, -52.390
1088.0000, -51.835
1088.4000, -52.295
1088.8000, -52.454
1089.2000, -52.028
1089.6000, -52.128
1090.0000, -51.948
1090.4000, -51.628
1090.8000, -51.917
1091.2000, -52.341
1091.6000, -51.722
1092.0000, -52.289
1092.4000, -52.086
1092.8000, -51.828
1093.2000, -51.709
1093.6000, -51.876
1094.0000, -52.054
1094.4000, -51.970
1094.8000, -52.120
1095.2000, -51.674
1095.6000, -52.246
1096.0000, -52.415
1096.4000, -52.294
1096.8000, -52.044
1097.2000, -51.906
1097.6000, -52.499
1098.0000, -51.801
1098.4000, -52.489
1098.8000, -51.850
1099.2000, -52.232
1099.6000, -52.213
1100.0000, -52.424
1100.4000, -51.765
1100.8000, -52.155
1101.2000, -52.139
1101.6000, -52.393
1102.0000, -51.841
1102.4000, -51.650
1102.8000, -51.885
1103.2000, -52.161
1103.6000, -52.205
1104.0000, -51.948
1104.4000, -52.544
1104.8000, -52.227
1105.2000, -52.368
1105.6000, -51.923
1106.0000, -51.771
1106.4000, -52.181
1106.8000, -52.645
1107.2000, -52.214
1107.6000, -52.094
1108.0000, -51.791
1108.4000, -52.406
1108.8000, -52.230
1109.2000, -52.151
1109.6000, -52.222
1110.0000, -51.816
1110.4000, -52.728
1110.8000, -52.165
1111.2000, -52.290
1111.6000, -52.614
1112.0000, -52.284
1112.4000, -52.620
1112.8000, -52.615
1113.2000, -52.277
1113.6000, -52.421
1114.0000, -52.199
1114.4000, -52.743
1114.8000, -52.747
1115.2000, -52.220
1115.6000, -52.385
1116.0000, -52.455
1116.4000, -52.298
1116.8000, -52.089
1117.2000, -52.156
1117.6000, -52.358
1118.0000, -52.032
1118.4000, -52.013
1118.8000, -51.833
1119.2000, -52.441
1119.6000, -52.937
1120.0000, -53.181
1120.4000, -52.567
1120.8000, -52.569
1121.2000, -52.479
1121.6000, -52.733
1122.0000, -52.817
1122.4000, -52.424
1122.8000, -52.647
1123.2000, -52.743
1123.6000, -52.837
1124.0000, -53.308
1124.4000, -52.287
1124.8000, -52.565
1125.2000, -52.630
1125.6000, -52.404
1126.0000, -52.502
1126.4000, -52.429
1126.8000, -52.673
1127.2000, -52.554
1127.6000, -52.627
1128.0000, -52.706
1128.4000, -52.596
1128.8000, -52.773
1129.2000, -52.560
1129.6000, -53.046
1130.0000, -52.286
1130.4000, -53.012
1130.8000, -52.836
1131.2000, -52.923
1131.6000, -53.057
1132.0000, -53.370
1132.4000, -53.002
1132.8000, -53.204
1133.2000, -52.714
1133.6000, -53.342
1134.0000, -53.108
1134.4000, -53.029
1134.8000, -53.158
1135.2000, -53.052
1135.6000, -52.830
1136.0000, -53.339
1136.4000, -52.965
1136.8000, -53.264
1137.2000, -53.065
1137.6000, -53.094
1138.0000, -53.546
1138.4000, -53.388
1138.8000, -53.189
1139.2000, -53.222
1139.6000, -53.266
1140.0000, -53.359
1140.4000, -52.844
1140.8000, -52.845
1141.2000, -53.324
1141.6000, -53.388
1142.0000, -53.211
1142.4000, -53.386
1142.8000, -53.629
1143.2000, -54.027
1143.6000, -52.857
1144.0000, -53.358
1144.4000, -53.475
1144.8000, -53.427
1145.2000, -53.602
1145.6000, -53.083
1146.0000, -53.305
1146.4000, -53.816
1146.8000, -53.593
1147.2000, -53.078
1147.6000, -53.559
1148.0000, -53.252
1148.4000, -53.145
1148.8000, -53.090
1149.2000, -53.409
1149.6000, -53.418
1150.0000, -53.509
1150.4000, -53.250
1150.8000, -53.899
1151.2000, -53.413
1151.6000, -53.460
1152.0000, -53.754
1152.4000, -53.839
1152.8000, -53.529
1153.2000, -53.318
1153.6000, -53.468
1154.0000, -53.507
1154.4000, -53.432
1154.8000, -53.973
1155.2000, -53.832
1155.6000, -53.135
1156.0000, -53.724
1156.4000, -53.335
1156.8000, -53.870
1157.2000, -53.894
1157.6000, -53.655
1158.0000, -53.530
1158.4000, -53.784
1158.8000, -53.536
1159.2000, -53.769
1159.6000, -54.239
1160.0000, -53.855
1160.4000, -53.817
1160.8000, -53.681
1161.2000, -53.994
1161.6000, -54.079
1162.0000, -53.849
1162.4000, -53.293
1162.8000, -53.718
1163.2000, -54.036
1163.6000, -54.377
1164.0000, -53.701
1164.4000, -54.081
1164.8000, -53.969
1165.2000, -53.336
1165.6000, -54.142
1166.0000, -53.674
1166.4000, -54.094
1166.8000, -54.206
1167.2000, -54.305
1167.6000, -54.078
1168.0000, -53.923
1168.4000, -54.097
1168.8000, -53.476
1169.2000, -53.889
1169.6000, -53.829
1170.0000, -54.141
1170.4000, -53.730
1170.8000, -53.570
1171.2000, -54.334
1171.6000, -54.065
1172.0000, -53.862
1172.4000, -53.915
1172.8000, -53.967
1173.2000, -54.155
1173.6000, -54.272
1174.0000, -54.116
1174.4000, -54.153
1174.8000, -53.905
1175.2000, -54.517
1175.6000, -53.641
1176.0000, -53.916
1176.4000, -54.200
1176.8000, -54.385
1177.2000, -54.104
1177.6000, -53.845
1178.0000, -54.313
1178.4000, -54.564
1178.8000, -54.491
1179.2000, -53.992
1179.6000, -54.277
1180.0000, -54.251
1180.4000, -54.284
1180.8000, -54.193
1181.2000, -54.095
1181.6000, -54.125
1182.0000, -54.312
1182.4000, -54.097
1182.8000, -53.992
1183.2000, -54.500
1183.6000, -53.866
1184.0000, -54.630
1184.4000, -54.332
1184.8000, -54.448
1185.2000, -54.622
1185.6000, -54.346
1186.0000, -53.877
1186.4000, -54.687
1186.8000, -54.266
1187.2000, -54.148
1187.6000, -54.292
1188.0000, -54.236
1188.4000, -54.678
1188.8000, -54.358
1189.2000, -54.470
1189.6000, -53.828
1190.0000, -53.898
1190.4000, -54.755
1190.8000, -54.582
1191.2000, -54.185
1191.6000, -54.534
1192.0000, -54.918
1192.4000, -54.209
1192.8000, -54.364
1193.2000, -54.696
1193.6000, -53.998
1194.0000, -54.458
1194.4000, -54.317
1194.8000, -54.592
1195.2000, -54.455
1195.6000, -54.648
1196.0000, -54.699
1196.4000, -54.671
1196.8000, -54.974
1197.2000, -54.569
1197.6000, -54.702
1198.0000, -54.812
1198.4000, -55.442
1198.8000, -54.595
1199.2000, -54.397
1199.6000, -55.506
1200.0000, -55.113
1200.4000, -54.796
1200.8000, -55.377
1201.2000, -54.848
1201.6000, -55.417
1202.0000, -54.787
1202.4000, -54.784
1202.8000, -54.421
1203.2000, -55.273
1203.6000, -54.963
1204.0000, -54.935
1204.4000, -55.171
1204.8000, -54.572
1205.2000, -54.988
1205.6000, -54.925
1206.0000, -55.116
1206.4000, -55.154
1206.8000, -55.005
1207.2000, -54.895
1207.6000, -54.833
1208.0000, -55.289
1208.4000, -54.981
1208.8000, -54.728
1209.2000, -55.302
1209.6000, -55.054
1210.0000, -55.233
1210.4000, -55.065
1210.8000, -55.520
1211.2000, -55.045
1211.6000, -55.368
1212.0000, -55.045
1212.4000, -54.910
1212.8000, -55.112
1213.2000, -55.398
1213.6000, -54.797
1214.0000, -55.742
1214.4000, -54.664
1214.8000, -55.052
1215.2000, -55.609
1215.6000, -55.176
1216.0000, -55.568
1216.4000, -55.248
1216.8000, -55.017
1217.2000, -55.100
1217.6000, -55.445
1218.0000, -55.527
1218.4000, -55.589
1218.8000, -55.246
1219.2000, -55.267
1219.6000, -55.686
1220.0000, -55.918
1220.4000, -55.656
1220.8000, -55.697
1221.2000, -55.752
1221.6000, -55.994
1222.0000, -55.462
1222.4000, -55.558
1222.8000, -55.167
1223.2000, -55.442
1223.6000, -55.517
1224.0000, -55.675
1224.4000, -56.300
1224.8000, -55.185
1225.2000, -56.143
1225.6000, -55.492
1226.0000, -55.670
1226.4000, -55.964
1226.8000, -56.300
1227.2000, -55.846
1227.6000, -56.367
1228.0000, -55.413
1228.4000, -56.160
1228.8000, -56.013
1229.2000, -55.846
1229.6000, -55.847
1230.0000, -55.716
1230.4000, -56.188
1230.8000, -55.798
1231.2000, -55.918
1231.6000, -55.838
1232.0000, -56.116
1232.4000, -56.431
1232.8000, -55.401
1233.2000, -55.596
1233.6000, -55.820
1234.0000, -55.680
1234.4000, -56.366
1234.8000, -55.853
1235.2000, -56.327
1235.6000, -56.055
1236.0000, -56.381
1236.4000, -55.838
1236.8000, -56.363
1237.2000, -55.845
1237.6000, -55.841
1238.0000, -56.017
1238.4000, -56.272
1238.8000, -56.266
1239.2000, -56.326
1239.6000, -56.441
1240.0000, -57.001
1240.4000, -56.443
1240.8000, -56.550
1241.2000, -56.312
1241.6000, -56.233
1242.0000, -56.072
1242.4000, -55.967
1242.8000, -56.384
1243.2000, -56.838
1243.6000, -56.398
1244.0000, -56.342
1244.4000, -56.448
1244.8000, -56.337
1245.2000, -56.118
1245.6000, -56.643
1246.0000, -56.806
1246.4000, -57.199
1246.8000, -56.880
1247.2000, -56.575
1247.6000, -56.419
1248.0000, -56.767
1248.4000, -56.311
1248.8000, -56.471
1249.2000, -57.381
1249.6000, -56.605
1250.0000, -56.588
1250.4000, -55.808
1250.8000, -56.300
1251.2000, -56.983
1251.6000, -56.494
1252.0000, -56.927
1252.4000, -56.510
1252.8000, -56.924
1253.2000, -56.955
1253.6000, -56.821
1254.0000, -56.758
1254.4000, -56.748
1254.8000, -56.684
1255.2000, -56.630
1255.6000, -56.848
1256.0000, -57.574
1256.4000, -56.729
1256.8000, -56.836
1257.2000, -56.859
1257.6000, -56.894
1258.0000, -56.885
1258.4000, -57.142
1258.8000, -57.193
1259.2000, -56.792
1259.6000, -56.327
1260.0000, -57.036
1260.4000, -57.390
1260.8000, -57.043
1261.2000, -56.934
1261.6000, -57.284
1262.0000, -57.174
1262.4000, -57.382
1262.8000, -57.529
1263.2000, -57.123
1263.6000, -56.990
1264.0000, -57.135
1264.4000, -56.858
1264.8000, -57.186
1265.2000, -56.990
1265.6000, -57.822
1266.0000, -58.032
1266.4000, -57.249
1266.8000, -57.966
1267.2000, -57.227
1267.6000, -57.327
1268.0000, -57.935
1268.4000, -57.309
1268.8000, -57.614
1269.2000, -57.542
1269.6000, -57.706
1270.0000, -57.380
1270.4000, -57.812
1270.8000, -57.579
1271.2000, -58.146
1271.6000, -57.061
1272.0000, -57.381
1272.4000, -57.285
1272.8000, -57.163
1273.2000, -57.433
1273.6000, -56.999
1274.0000, -57.494
1274.4000, -57.687
1274.8000, -57.865
1275.2000, -57.547
1275.6000, -57.180
1276.0000, -57.403
1276.4000, -57.765
1276.8000, -57.473
1277.2000, -57.414
1277.6000, -57.801
1278.0000, -57.397
1278.4000, -57.875
1278.8000, -56.971
1279.2000, -57.755
1279.6000, -57.622
1280.0000, -57.969
1280.4000, -57.735
1280.8000, -57.481
1281.2000, -57.901
1281.6000, -57.381
1282.0000, -57.576
1282.4000, -58.235
1282.8000, -57.934
1283.2000, -57.597
1283.6000, -58.581
1284.0000, -57.699
1284.4000, -58.195
1284.8000, -58.154
1285.2000, -57.432
1285.6000, -58.040
1286.0000, -58.123
1286.4000, -57.491
1286.8000, -57.594
1287.2000, -57.347
1287.6000, -58.008
1288.0000, -58.065
1288.4000, -57.439
1288.8000, -57.428
1289.2000, -57.760
1289.6000, -58.374
1290.0000, -57.780
1290.4000, -58.397
1290.8000, -58.073
1291.2000, -58.366
1291.6000, -59.218
1292.0000, -57.527
1292.4000, -57.717
1292.8000, -58.322
1293.2000, -58.758
1293.6000, -57.737
1294.0000, -57.932
1294.4000, -58.312
1294.8000, -57.598
1295.2000, -58.057
1295.6000, -58.149
1296.0000, -58.734
1296.4000, -58.547
1296.8000, -58.312
1297.2000, -58.540
1297.6000, -58.164
1298.0000, -57.442
1298.4000, -57.858
1298.8000, -58.633
1299.2000, -57.961
1299.6000, -58.206
1300.0000, -58.606
1300.4000, -59.055
1300.8000, -58.406
1301.2000, -58.374
1301.6000, -58.689
1302.0000, -58.446
1302.4000, -58.540
1302.8000, -58.088
1303.2000, -58.181
1303.6000, -57.904
1304.0000, -58.757
1304.4000, -58.355
1304.8000, -58.046
1305.2000, -58.722
1305.6000, -58.120
1306.0000, -59.000
1306.4000, -58.596
1306.8000, -58.159
1307.2000, -58.085
1307.6000, -58.444
1308.0000, -58.615
1308.4000, -58.774
1308.8000, -57.871
1309.2000, -59.163
1309.6000, -58.998
1310.0000, -58.100
1310.4000, -58.534
1310.8000, -58.605
1311.2000, -58.275
1311.6000, -58.697
1312.0000, -58.832
1312.4000, -58.913
1312.8000, -58.929
1313.2000, -57.841
1313.6000, -59.494
1314.0000, -58.061
1314.4000, -58.571
1314.8000, -58.697
1315.2000, -58.600
1315.6000, -59.265
1316.0000, -58.531
1316.4000, -58.650
1316.8000, -58.604
1317.2000, -58.596
1317.6000, -59.512
1318.0000, -58.635
1318.4000, -58.597
1318.8000, -58.396
1319.2000, -59.382
1319.6000, -58.657
1320.0000, -59.080
1320.4000, -58.572
1320.8000, -59.176
1321.2000, -58.629
1321.6000, -58.898
1322.0000, -58.875
1322.4000, -58.775
1322.8000, -58.514
1323.2000, -58.803
1323.6000, -59.270
1324.0000, -58.718
1324.4000, -58.850
1324.8000, -59.090
1325.2000, -58.905
1325.6000, -58.715
1326.0000, -58.982
1326.4000, -58.766
1326.8000, -59.791
1327.2000, -59.321
1327.6000, -58.705
1328.0000, -58.528
1328.4000, -58.832
1328.8000, -58.817
1329.2000, -59.542
1329.6000, -59.554
1330.0000, -58.699
1330.4000, -58.889
1330.8000, -58.812
1331.2000, -59.371
1331.6000, -59.484
1332.0000, -58.999
1332.4000, -59.551
1332.8000, -59.516
1333.2000, -58.473
1333.6000, -58.960
1334.0000, -58.421
1334.4000, -58.780
1334.8000, -59.707
1335.2000, -59.334
1335.6000, -59.337
1336.0000, -58.671
1336.4000, -59.431
1336.8000, -58.612
1337.2000, -58.771
1337.6000, -59.182
1338.0000, -59.191
1338.4000, -58.868
1338.8000, -58.879
1339.2000, -59.313
1339.6000, -58.989
1340.0000, -58.674
1340.4000, -59.394
1340.8000, -59.041
1341.2000, -60.036
1341.6000, -59.609
1342.0000, -59.645
1342.4000, -59.624
1342.8000, -59.268
1343.2000, -58.840
1343.6000, -58.722
1344.0000, -58.802
1344.4000, -59.054
1344.8000, -59.447
1345.2000, -59.288
1345.6000, -58.653
1346.0000, -59.450
1346.4000, -60.001
1346.8000, -59.363
1347.2000, -58.729
1347.6000, -59.174
1348.0000, -59.523
1348.4000, -59.814
1348.8000, -59.636
1349.2000, -58.987
1349.6000, -60.258
1350.0000, -59.212
1350.4000, -58.942
1350.8000, -59.330
1351.2000, -59.781
1351.6000, -59.833
1352.0000, -59.751
1352.4000, -59.109
1352.8000, -59.642
1353.2000, -59.945
1353.6000, -60.563
1354.0000, -59.633
1354.4000, -59.878
1354.8000, -58.951
1355.2000, -59.719
1355.6000, -59.070
1356.0000, -60.100
1356.4000, -58.964
1356.8000, -59.217
1357.2000, -59.817
1357.6000, -59.778
1358.0000, -59.124
1358.4000, -58.945
1358.8000, -59.320
1359.2000, -59.667
1359.6000, -59.368
1360.0000, -59.797
1360.4000, -59.856
1360.8000, -59.921
1361.2000, -59.348
1361.6000, -59.798
1362.0000, -60.432
1362.4000, -59.523
1362.8000, -59.610
1363.2000, -60.375
1363.6000, -59.474
1364.0000, -59.803
1364.4000, -60.064
1364.8000, -59.615
1365.2000, -59.407
1365.6000, -59.180
1366.0000, -59.658
1366.4000, -59.624
1366.8000, -60.269
1367.2000, -59.614
1367.6000, -59.827
1368.0000, -60.132
1368.4000, -59.852
1368.8000, -60.092
1369.2000, -59.158
1369.6000, -60.158
1370.0000, -60.330
1370.4000, -60.057
1370.8000, -59.643
1371.2000, -59.674
1371.6000, -60.462
1372.0000, -59.972
1372.4000, -60.248
1372.8000, -59.295
1373.2000, -59.323
1373.6000, -59.303
1374.0000, -59.748
1374.4000, -60.043
1374.8000, -60.343
1375.2000, -59.660
1375.6000, -60.680
1376.0000, -59.889
1376.4000, -60.157
1376.8000, -59.444
1377.2000, -59.725
1377.6000, -59.816
1378.0000, -59.594
1378.4000, -59.742
1378.8000, -59.549
1379.2000, -60.099
1379.6000, -59.752
1380.0000, -59.768
1380.4000, -59.969
1380.8000, -60.025
1381.2000, -59.886
1381.6000, -59.870
1382.0000, -59.157
1382.4000, -59.766
1382.8000, -60.215
1383.2000, -59.389
1383.6000, -59.604
1384.0000, -60.332
1384.4000, -60.015
1384.8000, -59.622
1385.2000, -59.811
1385.6000, -60.124
1386.0000, -59.391
1386.4000, -59.527
1386.8000, -60.129
1387.2000, -59.835
1387.6000, -59.436
1388.0000, -59.829
1388.4000, -59.873
1388.8000, -59.769
1389.2000, -59.527
1389.6000, -59.563
1390.0000, -59.831
1390.4000, -60.564
1390.8000, -60.484
1391.2000, -60.572
1391.6000, -59.768
1392.0000, -59.858
1392.4000, -60.388
1392.8000, -60.330
1393.2000, -59.905
1393.6000, -60.018
1394.0000, -59.439
1394.4000, -59.526
1394.8000, -60.218
1395.2000, -59.977
1395.6000, -60.596
1396.0000, -59.909
1396.4000, -59.752
1396.8000, -59.395
1397.2000, -59.809
1397.6000, -59.820
1398.0000, -59.960
1398.4000, -60.239
1398.8000, -59.463
1399.2000, -59.950
1399.6000, -60.037
1400.0000, -60.162
1400.4000, -60.170
1400.8000, -60.196
1401.2000, -59.698
1401.6000, -60.206
1402.0000, -60.020
1402.4000, -59.790
1402.8000, -60.406
1403.2000, -60.029
1403.6000, -60.183
1404.0000, -59.882
1404.4000, -60.328
1404.8000, -60.007
1405.2000, -59.891
1405.6000, -59.427
1406.0000, -60.119
1406.4000, -60.022
1406.8000, -59.463
1407.2000, -59.613
1407.6000, -59.697
1408.0000, -59.930
1408.4000, -59.906
1408.8000, -60.077
1409.2000, -59.843
1409.6000, -59.602
1410.0000, -60.148
1410.4000, -60.244
1410.8000, -60.459
1411.2000, -59.459
1411.6000, -59.530
1412.0000, -60.067
1412.4000, -59.487
1412.8000, -59.915
1413.2000, -59.119
1413.6000, -60.237
1414.0000, -58.949
1414.4000, -60.390
1414.8000, -59.638
1415.2000, -59.833
1415.6000, -60.040
1416.0000, -59.037
1416.4000, -59.622
1416.8000, -59.754
1417.2000, -59.614
1417.6000, -59.128
1418.0000, -60.093
1418.4000, -60.058
1418.8000, -59.431
1419.2000, -60.013
1419.6000, -59.924
1420.0000, -59.424
1420.4000, -59.742
1420.8000, -59.128
1421.2000, -59.686
1421.6000, -59.064
1422.0000, -59.420
1422.4000, -59.316
1422.8000, -60.159
1423.2000, -59.092
1423.6000, -59.498
1424.0000, -59.592
1424.4000, -59.040
1424.8000, -59.220
1425.2000, -58.964
1425.6000, -59.256
1426.0000, -59.253
1426.4000, -59.107
1426.8000, -59.337
1427.2000, -59.513
1427.6000, -59.255
1428.0000, -59.010
1428.4000, -59.226
1428.8000, -59.479
1429.2000, -58.962
1429.6000, -58.863
1430.0000, -58.472
1430.4000, -58.897
1430.8000, -58.685
1431.2000, -59.015
1431.6000, -58.476
1432.0000, -58.117
1432.4000, -58.682
1432.8000, -58.340
1433.2000, -58.492
1433.6000, -58.256
1434.0000, -58.089
1434.4000, -58.366
1434.8000, -58.432
1435.2000, -58.313
1435.6000, -58.483
1436.0000, -57.745
1436.4000, -58.464
1436.8000, -57.989
1437.2000, -57.494
1437.6000, -57.572
1438.0000, -57.572
1438.4000, -57.611
1438.8000, -57.766
1439.2000, -57.407
1439.6000, -57.602
1440.0000, -57.299
1440.4000, -57.659
1440.8000, -57.284
1441.2000, -57.332
1441.6000, -57.204
1442.0000, -56.987
1442.4000, -57.135
1442.8000, -57.030
1443.2000, -56.905
1443.6000, -56.892
1444.0000, -56.767
1444.4000, -56.846
1444.8000, -56.960
1445.2000, -56.610
1445.6000, -56.691
1446.0000, -56.722
1446.4000, -56.639
1446.8000, -56.428
1447.2000, -56.317
1447.6000, -56.446
1448.0000, -56.439
1448.4000, -56.442
1448.8000, -56.305
1449.2000, -56.213
1449.6000, -56.069
1450.0000, -56.206
1450.4000, -56.276
1450.8000, -56.245
1451.2000, -56.278
1451.6000, -56.116
1452.0000, -56.194
1452.4000, -56.085
1452.8000, -56.074
1453.2000, -55.821
1453.6000, -55.750
1454.0000, -55.895
1454.4000, -55.685
1454.8000, -55.721
1455.2000, -55.873
1455.6000, -55.713
1456.0000, -55.562
1456.4000, -55.500
1456.8000, -55.523
1457.2000, -55.609
1457.6000, -55.425
1458.0000, -55.522
1458.4000, -55.459
1458.8000, -55.366
1459.2000, -55.383
1459.6000, -55.232
1460.0000, -55.178
1460.4000, -55.166
1460.8000, -55.177
1461.2000, -55.117
1461.6000, -55.076
1462.0000, -55.052
1462.4000, -55.155
1462.8000, -54.995
1463.2000, -54.967
1463.6000, -55.140
1464.0000, -54.855
1464.4000, -54.842
1464.8000, -54.813
1465.2000, -54.799
1465.6000, -54.686
1466.0000, -54.702
1466.4000, -54.578
1466.8000, -54.573
1467.2000, -54.692
1467.6000, -54.442
1468.0000, -54.498
1468.4000, -54.420
1468.8000, -54.382
1469.2000, -54.250
1469.6000, -54.362
1470.0000, -54.155
1470.4000, -54.205
1470.8000, -54.182
1471.2000, -54.075
1471.6000, -54.106
1472.0000, -53.991
1472.4000, -53.975
1472.8000, -53.925
1473.2000, -53.825
1473.6000, -53.810
1474.0000, -53.754
1474.4000, -53.576
1474.8000, -53.541
1475.2000, -53.455
1475.6000, -53.522
1476.0000, -53.468
1476.4000, -53.381
1476.8000, -53.376
1477.2000, -53.236
1477.6000, -53.127
1478.0000, -53.179
1478.4000, -53.145
1478.8000, -53.053
1479.2000, -52.968
1479.6000, -52.955
1480.0000, -52.899
1480.4000, -52.759
1480.8000, -52.824
1481.2000, -52.738
1481.6000, -52.691
1482.0000, -52.471
1482.4000, -52.434
1482.8000, -52.403
1483.2000, -52.303
1483.6000, -52.308
1484.0000, -52.158
1484.4000, -52.099
1484.8000, -51.976
1485.2000, -51.907
1485.6000, -51.871
1486.0000, -51.722
1486.4000, -51.645
1486.8000, -51.564
1487.2000, -51.443
1487.6000, -51.271
1488.0000, -51.184
1488.4000, -51.130
1488.8000, -50.994
1489.2000, -50.900
1489.6000, -50.820
1490.0000, -50.692
1490.4000, -50.559
1490.8000, -50.452
1491.2000, -50.278
1491.6000, -50.240
1492.0000, -50.052
1492.4000, -49.951
1492.8000, -49.805
1493.2000, -49.688
1493.6000, -49.545
1494.0000, -49.418
1494.4000, -49.238
1494.8000, -49.100
1495.2000, -48.983
1495.6000, -48.825
1496.0000, -48.698
1496.4000, -48.522
1496.8000, -48.380
1497.2000, -48.208
1497.6000, -48.036
1498.0000, -47.898
1498.4000, -47.757
1498.8000, -47.539
1499.2000, -47.349
1499.6000, -47.188
1500.0000, -47.020
1500.4000, -46.820
1500.8000, -46.635
1501.2000, -46.447
1501.6000, -46.246
1502.0000, -46.049
1502.4000, -45.836
1502.8000, -45.637
1503.2000, -45.409
1503.6000, -45.197
1504.0000, -44.953
1504.4000, -44.761
1504.8000, -44.547
1505.2000, -44.307
1505.6000, -44.086
1506.0000, -43.864
1506.4000, -43.620
1506.8000, -43.374
1507.2000, -43.135
1507.6000, -42.890
1508.0000, -42.659
1508.4000, -42.412
1508.8000, -42.184
1509.2000, -41.936
1509.6000, -41.717
1510.0000, -41.474
1510.4000, -41.236
1510.8000, -41.009
1511.2000, -40.775
1511.6000, -40.553
1512.0000, -40.330
1512.4000, -40.112
1512.8000, -39.893
1513.2000, -39.695
1513.6000, -39.485
1514.0000, -39.289
1514.4000, -39.096
1514.8000, -38.897
1515.2000, -38.708
1515.6000, -38.514
1516.0000, -38.334
1516.4000, -38.157
1516.8000, -37.984
1517.2000, -37.813
1517.6000, -37.641
1518.0000, -37.469
1518.4000, -37.298
1518.8000, -37.123
1519.2000, -36.945
1519.6000, -36.767
1520.0000, -36.585
1520.4000, -36.402
1520.8000, -36.218
1521.2000, -36.030
1521.6000, -35.838
1522.0000, -35.646
1522.4000, -35.450
1522.8000, -35.255
1523.2000, -35.056
1523.6000, -34.860
1524.0000, -34.667
1524.4000, -34.469
1524.8000, -34.276
1525.2000, -34.079
1525.6000, -33.878
1526.0000, -33.671
1526.4000, -33.456
1526.8000, -33.241
1527.2000, -33.020
1527.6000, -32.795
1528.0000, -32.569
1528.4000, -32.339
1528.8000, -32.101
1529.2000, -31.855
1529.6000, -31.596
1530.0000, -31.323
1530.4000, -31.034
1530.8000, -30.731
1531.2000, -30.405
1531.6000, -30.058
1532.0000, -29.689
1532.4000, -29.297
1532.8000, -28.883
1533.2000, -28.441
1533.6000, -27.973
1534.0000, -27.489
1534.4000, -26.992
1534.8000, -26.486
1535.2000, -25.977
1535.6000, -25.466
1536.0000, -24.961
1536.4000, -24.464
1536.8000, -23.982
1537.2000, -23.509
1537.6000, -23.049
1538.0000, -22.601
1538.4000, -22.167
1538.8000, -21.744
1539.2000, -21.333
1539.6000, -20.927
1540.0000, -20.532
1540.4000, -20.146
1540.8000, -19.766
1541.2000, -19.391
1541.6000, -19.018
1542.0000, -18.654
1542.4000, -18.280
1542.8000, -17.916
1543.2000, -17.552
1543.6000, -17.193
1544.0000, -16.836
1544.4000, -16.487
1544.8000, -16.145
1545.2000, -15.810
1545.6000, -15.481
1546.0000, -15.163
1546.4000, -14.855
1546.8000, -14.559
1547.2000, -14.273
1547.6000, -13.995
1548.0000, -13.729
1548.4000, -13.473
1548.8000, -13.230
1549.2000, -12.996
1549.6000, -12.771
1550.0000, -12.554
1550.4000, -12.344
1550.8000, -12.138
1551.2000, -11.937
1551.6000, -11.741
1552.0000, -11.553
1552.4000, -11.374
1552.8000, -11.207
1553.2000, -11.052
1553.6000, -10.906
1554.0000, -10.769
1554.4000, -10.638
1554.8000, -10.514
1555.2000, -10.394
1555.6000, -10.280
1556.0000, -10.175
1556.4000, -10.078
1556.8000,  -9.994
1557.2000,  -9.920
1557.6000,  -9.853
1558.0000,  -9.793
1558.4000,  -9.735
1558.8000,  -9.681
1559.2000,  -9.634
1559.6000,  -9.593
1560.0000,  -9.561
1560.4000,  -9.539
1560.8000,  -9.527
1561.2000,  -9.525
1561.6000,  -9.530
1562.0000,  -9.542
1562.4000,  -9.556
1562.8000,  -9.574
1563.2000,  -9.599
1563.6000,  -9.629
1564.0000,  -9.668
1564.4000,  -9.711
1564.8000,  -9.762
1565.2000,  -9.819
1565.6000,  -9.880
1566.0000,  -9.942
1566.4000, -10.007
1566.8000, -10.076
1567.2000, -10.152
1567.6000, -10.233
1568.0000, -10.320
1568.4000, -10.410
1568.8000, -10.504
1569.2000, -10.603
1569.6000, -10.703
1570.0000, -10.805
1570.4000, -10.906
1570.8000, -11.007
1571.2000, -11.109
1571.6000, -11.215
1572.0000, -11.329
1572.4000, -11.448
1572.8000, -11.570
1573.2000, -11.693
1573.6000, -11.816
1574.0000, -11.939
1574.4000, -12.060
1574.8000, -12.185
1575.2000, -12.312
1575.6000, -12.447
1576.0000, -12.586
1576.4000, -12.725
1576.8000, -12.860
1577.2000, -12.999
1577.6000, -13.144
1578.0000, -13.294
1578.4000, -13.452
1578.8000, -13.622
1579.2000, -13.797
1579.6000, -13.971
1580.0000, -14.138
1580.4000, -14.291
1580.8000, -14.427
1581.2000, -14.548
1581.6000, -14.656
1582.0000, -14.761
1582.4000, -14.862
1582.8000, -14.959
1583.2000, -15.044
1583.6000, -15.117
1584.0000, -15.172
1584.4000, -15.208
1584.8000, -15.230
1585.2000, -15.248
1585.6000, -15.268
1586.0000, -15.291
1586.4000, -15.309
1586.8000, -15.322
1587.2000, -15.323
1587.6000, -15.311
1588.0000, -15.284
1588.4000, -15.251
1588.8000, -15.209
1589.2000, -15.165
1589.6000, -15.120
1590.0000, -15.076
1590.4000, -15.021
1590.8000, -14.965
1591.2000, -14.905
1591.6000, -14.838
1592.0000, -14.760
1592.4000, -14.684
1592.8000, -14.614
1593.2000, -14.555
1593.6000, -14.505
1594.0000, -14.463
1594.4000, -14.425
1594.8000, -14.394
1595.2000, -14.362
1595.6000, -14.331
1596.0000, -14.303
1596.4000, -14.274
1596.8000, -14.239
1597.2000, -14.204
1597.6000, -14.160
1598.0000, -14.116
1598.4000, -14.064
1598.8000, -14.011
1599.2000, -13.951
1599.6000, -13.889
1600.0000, -13.832
1600.4000, -13.775
1600.8000, -13.718
1601.2000, -13.667
1601.6000, -13.621
1602.0000, -13.581
1602.4000, -13.541
1602.8000, -13.510
1603.2000, -13.480
1603.6000, -13.451
1604.0000, -13.430
1604.4000, -13.410
1604.8000, -13.386
1605.2000, -13.352
1605.6000, -13.312
1606.0000, -13.268
1606.4000, -13.220
1606.8000, -13.164
1607.2000, -13.103
1607.6000, -13.039
1608.0000, -12.975
1608.4000, -12.904
1608.8000, -12.832
1609.2000, -12.758
1609.6000, -12.689
1610.0000, -12.621
1610.4000, -12.551
1610.8000, -12.467
1611.2000, -12.376
1611.6000, -12.277
1612.0000, -12.172
1612.4000, -12.057
1612.8000, -11.941
1613.2000, -11.824
1613.6000, -11.709
1614.0000, -11.595
1614.4000, -11.482
1614.8000, -11.361
1615.2000, -11.238
1615.6000, -11.111
1616.0000, -10.981
1616.4000, -10.844
1616.8000, -10.710
1617.2000, -10.580
1617.6000, -10.452
1618.0000, -10.329
1618.4000, -10.209
1618.8000, -10.094
1619.2000,  -9.979
1619.6000,  -9.867
1620.0000,  -9.758
1620.4000,  -9.654
1620.8000,  -9.549
1621.2000,  -9.447
1621.6000,  -9.346
1622.0000,  -9.253
1622.4000,  -9.159
1622.8000,  -9.073
1623.2000,  -8.989
1623.6000,  -8.911
1624.0000,  -8.836
1624.4000,  -8.766
1624.8000,  -8.699
1625.2000,  -8.637
1625.6000,  -8.580
1626.0000,  -8.535
1626.4000,  -8.499
1626.8000,  -8.472
1627.2000,  -8.454
1627.6000,  -8.442
1628.0000,  -8.438
1628.4000,  -8.435
1628.8000,  -8.439
1629.2000,  -8.445
1629.6000,  -8.460
1630.0000,  -8.479
1630.4000,  -8.507
1630.8000,  -8.543
1631.2000,  -8.590
1631.6000,  -8.643
1632.0000,  -8.708
1632.4000,  -8.772
1632.8000,  -8.843
1633.2000,  -8.916
1633.6000,  -8.995
1634.0000,  -9.081
1634.4000,  -9.174
1634.8000,  -9.278
1635.2000,  -9.390
1635.6000,  -9.510
1636.0000,  -9.634
1636.4000,  -9.765
1636.8000,  -9.893
1637.2000, -10.027
1637.6000, -10.157
1638.0000, -10.293
1638.4000, -10.429
1638.8000, -10.575
1639.2000, -10.726
1639.6000, -10.883
1640.0000, -11.042
1640.4000, -11.203
1640.8000, -11.363
1641.2000, -11.516
1641.6000, -11.665
1642.0000, -11.810
1642.4000, -11.956
1642.8000, -12.098
1643.2000, -12.242
1643.6000, -12.381
1644.0000, -12.523
1644.4000, -12.658
1644.8000, -12.790
1645.2000, -12.913
1645.6000, -13.030
1646.0000, -13.140
1646.4000, -13.252
1646.8000, -13.366
1647.2000, -13.488
1647.6000, -13.626
1648.0000, -13.779
1648.4000, -13.954
1648.8000, -14.141
1649.2000, -14.348
1649.6000, -14.562
1650.0000, -14.792
1650.4000, -15.027
1650.8000, -15.277
1651.2000, -15.535
1651.6000, -15.804
1652.0000, -16.086
1652.4000, -16.375
1652.8000, -16.673
1653.2000, -16.969
1653.6000, -17.267
1654.0000, -17.558
1654.4000, -17.843
1654.8000, -18.113
1655.2000, -18.379
1655.6000, -18.638
1656.0000, -18.896
1656.4000, -19.151
1656.8000, -19.407
1657.2000, -19.664
1657.6000, -19.916
1658.0000, -20.168
1658.4000, -20.410
1658.8000, -20.646
1659.2000, -20.869
1659.6000, -21.090
1660.0000, -21.309
1660.4000, -21.529
1660.8000, -21.747
1661.2000, -21.973
1661.6000, -22.203
1662.0000, -22.436
1662.4000, -22.666
1662.8000, -22.898
1663.2000, -23.133
1663.6000, -23.363
1664.0000, -23.596
1664.4000, -23.828
1664.8000, -24.064
1665.2000, -24.305
1665.6000, -24.551
1666.0000, -24.812
1666.4000, -25.073
1666.8000, -25.341
1667.2000, -25.611
1667.6000, -25.890
1668.0000, -26.165
1668.4000, -26.444
1668.8000, -26.720
1669.2000, -27.004
1669.6000, -27.291
1670.0000, -27.587
1670.4000, -27.892
1670.8000, -28.199
1671.2000, -28.512
1671.6000, -28.828
1672.0000, -29.154
1672.4000, -29.472
1672.8000, -29.791
1673.2000, -30.109
1673.6000, -30.433
1674.0000, -30.758
1674.4000, -31.079
1674.8000, -31.408
1675.2000, -31.736
1675.6000, -32.065
1676.0000, -32.394
1676.4000, -32.724
1676.8000, -33.046
1677.2000, -33.368
1677.6000, -33.693
1678.0000, -34.029
1678.4000, -34.367
1678.8000, -34.716
1679.2000, -35.081
1679.6000, -35.453
1680.0000, -35.827
1680.4000, -36.199
1680.8000, -36.568
1681.2000, -36.930
1681.6000, -37.287
1682.0000, -37.636
1682.4000, -37.980
1682.8000, -38.324
1683.2000, -38.665
1683.6000, -39.005
1684.0000, -39.335
1684.4000, -39.662
1684.8000, -39.972
1685.2000, -40.266
1685.6000, -40.546
1686.0000, -40.818
1686.4000, -41.084
1686.8000, -41.331
1687.2000, -41.582
1687.6000, -41.840
1688.0000, -42.081
1688.4000, -42.319
1688.8000, -42.550
1689.2000, -42.775
1689.6000, -42.983
1690.0000, -43.189
1690.4000, -43.385
1690.8000, -43.568
1691.2000, -43.784
1691.6000, -44.003
1692.0000, -44.231
1692.4000, -44.479
1692.8000, -44.750
1693.2000, -45.079
1693.6000, -45.406
1694.0000, -45.770
1694.4000, -46.181
1694.8000, -46.654
1695.2000, -47.166
1695.6000, -47.716
1696.0000, -48.226
1696.4000, -48.717
1696.8000, -49.096
1697.2000, -49.271
1697.6000, -49.359
1698.0000, -49.348
1698.4000, -49.250
1698.8000, -49.205
1699.2000, -49.159
1699.6000, -49.148
1700.0000, -49.215
1700.4000, -49.276
1700.8000, -49.403
1701.2000, -49.590
1701.6000, -49.774
1702.0000, -49.992
1702.4000, -50.143
1702.8000, -50.392
1703.2000, -50.555
1703.6000, -50.785
1704.0000, -50.913
1704.4000, -51.160
1704.8000, -51.327
1705.2000, -51.527
1705.6000, -51.701
1706.0000, -51.911
1706.4000, -52.080
1706.8000, -52.360
1707.2000, -52.511
1707.6000, -52.707
1708.0000, -52.975
1708.4000, -53.132
1708.8000, -53.435
1709.2000, -53.781
1709.6000, -54.239
1710.0000, -54.619
1710.4000, -55.236
1710.8000, -55.666
1711.2000, -56.017
1711.6000, -56.305
1712.0000, -56.511
1712.4000, -56.293
1712.8000, -55.998
1713.2000, -56.124
1713.6000, -55.874
1714.0000, -55.764
1714.4000, -55.829
1714.8000, -55.923
1715.2000, -55.865
1715.6000, -55.999
1716.0000, -56.146
1716.4000, -56.199
1716.8000, -56.441
1717.2000, -56.625
1717.6000, -56.684
1718.0000, -56.554
1718.4000, -56.918
1718.8000, -56.766
1719.2000, -56.890
1719.6000, -57.050
1720.0000, -57.209
1720.4000, -57.448
1720.8000, -57.442
1721.2000, -57.653
1721.6000, -57.603
1722.0000, -58.019
1722.4000, -58.271
1722.8000, -58.213
1723.2000, -58.502
1723.6000, -58.942
1724.0000, -58.782
1724.4000, -58.720
1724.8000, -58.892
1725.2000, -58.896
1725.6000, -58.838
1726.0000, -58.869
1726.4000, -58.819
1726.8000, -58.803
1727.2000, -58.590
1727.6000, -58.906
1728.0000, -58.693
1728.4000, -59.014
1728.8000, -59.090
1729.2000, -59.106
1729.6000, -58.772
1730.0000, -59.109
1730.4000, -59.352
1730.8000, -59.362
1731.2000, -59.319
1731.6000, -59.271
1732.0000, -59.509
1732.4000, -59.267
1732.8000, -59.642
1733.2000, -59.637
1733.6000, -59.872
1734.0000, -60.301
1734.4000, -60.316
1734.8000, -60.649
1735.2000, -60.762
1735.6000, -60.599
1736.0000, -60.515
1736.4000, -60.216
1736.8000, -60.129
1737.2000, -60.301
1737.6000, -60.541
1738.0000, -60.347
1738.4000, -60.425
1738.8000, -60.355
1739.2000, -60.208
1739.6000, -60.131
1740.0000, -60.551
1740.4000, -60.510
1740.8000, -60.185
1741.2000, -60.536
1741.6000, -60.685
1742.0000, -60.517
1742.4000, -60.805
1742.8000, -60.803
1743.2000, -61.222
1743.6000, -60.925
1744.0000, -60.742
1744.4000, -61.326
1744.8000, -61.239
1745.2000, -61.077
1745.6000, -60.953
1746.0000, -60.725
1746.4000, -60.390
1746.8000, -61.041
1747.2000, -61.207
1747.6000, -60.913
1748.0000, -60.618
1748.4000, -60.660
1748.8000, -60.861
1749.2000, -61.516
1749.6000, -60.727
1750.0000, -61.196
1750.4000, -60.908
1750.8000, -60.834
1751.2000, -60.810
1751.6000, -60.999
1752.0000, -60.643
1752.4000, -61.262
1752.8000, -61.487
1753.2000, -60.871
1753.6000, -61.472
1754.0000, -60.771
1754.4000, -61.092
1754.8000, -61.285
1755.2000, -61.342
1755.6000, -61.153
1756.0000, -60.653
1756.4000, -61.286
1756.8000, -60.695
1757.2000, -61.357
1757.6000, -60.749
1758.0000, -61.060
1758.4000, -61.023
1758.8000, -61.192
1759.2000, -60.884
1759.6000, -60.808
1760.0000, -60.785
1760.4000, -60.983
1760.8000, -60.857
1761.2000, -60.900
1761.6000, -60.790
1762.0000, -61.362
1762.4000, -60.759
1762.8000, -60.911
1763.2000, -60.787
1763.6000, -60.741
1764.0000, -60.614
1764.4000, -60.869
1764.8000, -61.153
1765.2000, -60.149
1765.6000, -60.883
1766.0000, -60.619
1766.4000, -60.511
1766.8000, -60.591
1767.2000, -61.014
1767.6000, -60.527
1768.0000, -60.392
1768.4000, -60.534
1768.8000, -60.300
1769.2000, -60.650
1769.6000, -60.349
1770.0000, -59.988
1770.4000, -60.469
1770.8000, -60.466
1771.2000, -60.163
1771.6000, -60.451
1772.0000, -60.531
1772.4000, -60.292
1772.8000, -60.288
1773.2000, -59.978
1773.6000, -60.095
1774.0000, -59.881
1774.4000, -59.903
1774.8000, -60.115
1775.2000, -59.893
1775.6000, -59.945
1776.0000, -59.551
1776.4000, -59.877
1776.8000, -59.502
1777.2000, -60.096
1777.6000, -59.521
1778.0000, -59.605
1778.4000, -59.674
1778.8000, -59.533
1779.2000, -59.352
1779.6000, -59.159
1780.0000, -59.409
1780.4000, -59.695
1780.8000, -59.337
1781.2000, -59.820
1781.6000, -59.167
1782.0000, -59.420
1782.4000, -58.884
1782.8000, -59.273
1783.2000, -59.158
1783.6000, -59.150
1784.0000, -59.091
1784.4000, -58.891
1784.8000, -58.901
1785.2000, -59.181
1785.6000, -58.828
1786.0000, -59.011
1786.4000, -58.837
1786.8000, -58.836
1787.2000, -58.954
1787.6000, -58.920
1788.0000, -58.672
1788.4000, -58.991
1788.8000, -58.723
1789.2000, -58.578
1789.6000, -58.874
1790.0000, -58.779
1790.4000, -58.567
1790.8000, -58.529
1791.2000, -58.842
1791.6000, -58.525
1792.0000, -58.614
1792.4000, -58.569
1792.8000, -58.622
1793.2000, -58.397
1793.6000, -58.420
1794.0000, -58.516
1794.4000, -58.935
1794.8000, -58.578
1795.2000, -58.818
1795.6000, -58.747
1796.0000, -58.818
1796.4000, -58.474
1796.8000, -58.448
1797.2000, -58.711
1797.6000, -58.522
1798.0000, -58.466
1798.4000, -58.496
1798.8000, -58.644
1799.2000, -58.645
1799.6000, -58.760
1800.0000, -58.464
1800.4000, -58.621
1800.8000, -58.722
1801.2000, -58.562
1801.6000, -58.456
1802.0000, -58.727
1802.4000, -58.609
1802.8000, -58.633
1803.2000, -58.680
1803.6000, -58.603
1804.0000, -58.489
1804.4000, -58.740
1804.8000, -58.794
1805.2000, -58.660
1805.6000, -58.917
1806.0000, -58.777
1806.4000, -58.585
1806.8000, -58.715
1807.2000, -58.888
1807.6000, -58.806
1808.0000, -58.960
1808.4000, -58.994
1808.8000, -59.061
1809.2000, -59.091
1809.6000, -59.344
1810.0000, -58.977
1810.4000, -59.109
1810.8000, -59.013
1811.2000, -59.289
1811.6000, -58.838
1812.0000, -59.028
1812.4000, -58.899
1812.8000, -59.141
1813.2000, -59.061
1813.6000, -59.114
1814.0000, -59.209
1814.4000, -59.041
1814.8000, -59.485
1815.2000, -59.286
1815.6000, -59.260
1816.0000, -59.322
1816.4000, -59.173
1816.8000, -59.524
1817.2000, -59.034
1817.6000, -59.388
1818.0000, -59.100
1818.4000, -59.370
1818.8000, -58.949
1819.2000, -59.165
1819.6000, -59.522
1820.0000, -59.227
1820.4000, -59.523
1820.8000, -59.334
1821.2000, -59.473
1821.6000, -59.253
1822.0000, -59.345
1822.4000, -59.478
1822.8000, -59.427
1823.2000, -59.266
1823.6000, -59.271
1824.0000, -59.433
1824.4000, -59.488
1824.8000, -58.999
1825.2000, -59.257
1825.6000, -59.535
1826.0000, -59.416
1826.4000, -59.222
1826.8000, -59.127
1827.2000, -59.552
1827.6000, -59.243
1828.0000, -59.154
1828.4000, -59.290
1828.8000, -59.129
1829.2000, -59.127
1829.6000, -59.220
1830.0000, -59.114
1830.4000, -59.181
1830.8000, -59.095
1831.2000, -59.128
1831.6000, -58.947
1832.0000, -58.906
1832.4000, -58.930
1832.8000, -58.917
1833.2000, -58.919
1833.6000, -58.587
1834.0000, -58.755
1834.4000, -58.816
1834.8000, -58.756
1835.2000, -58.692
1835.6000, -58.467
1836.0000, -58.760
1836.4000, -58.537
1836.8000, -58.485
1837.2000, -58.303
1837.6000, -58.406
1838.0000, -58.454
1838.4000, -58.186
1838.8000, -58.245
1839.2000, -58.084
1839.6000, -57.969
1840.0000, -58.120
1840.4000, -57.731
1840.8000, -57.808
1841.2000, -57.730
1841.6000, -57.751
1842.0000, -57.526
1842.4000, -57.388
1842.8000, -57.329
1843.2000, -57.456
1843.6000, -57.360
1844.0000, -57.243
1844.4000, -57.204
1844.8000, -56.955
1845.2000, -57.016
1845.6000, -56.927
1846.0000, -56.841
1846.4000, -57.033
1846.8000, -56.727
1847.2000, -56.715
1847.6000, -56.609
1848.0000, -56.543
1848.4000, -56.631
1848.8000, -56.467
1849.2000, -56.363
1849.6000, -56.298
1850.0000, -56.204
1850.4000, -56.238
1850.8000, -56.185
1851.2000, -56.279
1851.6000, -56.061
1852.0000, -55.975
1852.4000, -55.931
1852.8000, -55.925
1853.2000, -55.963
1853.6000, -55.825
1854.0000, -55.908
1854.4000, -55.759
1854.8000, -55.714
1855.2000, -55.746
1855.6000, -55.608
1856.0000, -55.747
1856.4000, -55.564
1856.8000, -55.693
1857.2000, -55.588
1857.6000, -55.620
1858.0000, -55.477
1858.4000, -55.525
1858.8000, -55.477
1859.2000, -55.398
1859.6000, -55.408
1860.0000, -55.382
1860.4000, -55.368
1860.8000, -55.347
1861.2000, -55.370
1861.6000, -55.340
1862.0000, -55.305
1862.4000, -55.257
1862.8000, -55.203
1863.2000, -55.268
1863.6000, -55.137
1864.0000, -55.194
1864.4000, -55.086
1864.8000, -55.034
1865.2000, -55.041
1865.6000, -55.019
1866.0000, -54.925
1866.4000, -54.881
1866.8000, -54.894
1867.2000, -54.789
1867.6000, -54.699
1868.0000, -54.699
1868.4000, -54.656
1868.8000, -54.516
1869.2000, -54.461
1869.6000, -54.393
1870.0000, -54.293
1870.4000, -54.221
1870.8000, -54.165
1871.2000, -54.063
1871.6000, -53.968
1872.0000, -53.871
1872.4000, -53.750
1872.8000, -53.675
1873.2000, -53.528
1873.6000, -53.510
1874.0000, -53.337
1874.4000, -53.271
1874.8000, -53.184
1875.2000, -53.062
1875.6000, -52.926
1876.0000, -52.855
1876.4000, -52.750
1876.8000, -52.641
1877.2000, -52.516
1877.6000, -52.451
1878.0000, -52.355
1878.4000, -52.258
1878.8000, -52.157
1879.2000, -52.026
1879.6000, -51.971
1880.0000, -51.832
1880.4000, -51.795
1880.8000, -51.730
1881.2000, -51.622
1881.6000, -51.518
1882.0000, -51.463
1882.4000, -51.356
1882.8000, -51.268
1883.2000, -51.217
1883.6000, -51.246
1884.0000, -51.137
1884.4000, -51.050
1884.8000, -51.024
1885.2000, -51.002
1885.6000, -50.948
1886.0000, -50.935
1886.4000, -50.879
1886.8000, -50.847
1887.2000, -50.820
1887.6000, -50.814
1888.0000, -50.815
1888.4000, -50.768
1888.8000, -50.786
1889.2000, -50.761
1889.6000, -50.801
1890.0000, -50.832
1890.4000, -50.857
1890.8000, -50.824
1891.2000, -50.863
1891.6000, -50.890
1892.0000, -50.946
1892.4000, -50.936
1892.8000, -50.967
1893.2000, -51.014
1893.6000, -51.092
1894.0000, -51.087
1894.4000, -51.121
1894.8000, -51.192
1895.2000, -51.202
1895.6000, -51.328
1896.0000, -51.366
1896.4000, -51.404
1896.8000, -51.477
1897.2000, -51.531
1897.6000, -51.521
1898.0000, -51.644
1898.4000, -51.722
1898.8000, -51.766
1899.2000, -51.758
1899.6000, -51.862
1900.0000, -51.938
1900.4000, -51.991
1900.8000, -52.056
1901.2000, -52.128
1901.6000, -52.169
1902.0000, -52.224
1902.4000, -52.234
1902.8000, -52.382
1903.2000, -52.328
1903.6000, -52.460
1904.0000, -52.460
1904.4000, -52.561
1904.8000, -52.583
1905.2000, -52.648
1905.6000, -52.665
1906.0000, -52.708
1906.4000, -52.786
1906.8000, -52.802
1907.2000, -52.746
1907.6000, -52.827
1908.0000, -52.830
1908.4000, -52.854
1908.8000, -52.880
1909.2000, -52.847
1909.6000, -52.936
1910.0000, -52.939
1910.4000, -52.949
1910.8000, -52.897
1911.2000, -52.900
1911.6000, -52.915
1912.0000, -52.857
1912.4000, -52.870
1912.8000, -52.872
1913.2000, -52.869
1913.6000, -52.820
1914.0000, -52.789
1914.4000, -52.793
1914.8000, -52.727
1915.2000, -52.765
1915.6000, -52.732
1916.0000, -52.695
1916.4000, -52.702
1916.8000, -52.625
1917.2000, -52.661
1917.6000, -52.631
1918.0000, -52.572
1918.4000, -52.567
1918.8000, -52.555
1919.2000, -52.532
1919.6000, -52.486
1920.0000, -52.532
1920.4000, -52.511
1920.8000, -52.422
1921.2000, -52.415
1921.6000, -52.413
1922.0000, -52.369
1922.4000, -52.399
1922.8000, -52.329
1923.2000, -52.356
1923.6000, -52.311
1924.0000, -52.272
1924.4000, -52.271
1924.8000, -52.221
1925.2000, -52.260
1925.6000, -52.191
1926.0000, -52.174
1926.4000, -52.167
1926.8000, -52.187
1927.2000, -52.088
1927.6000, -52.082
1928.0000, -52.096
1928.4000, -51.981
1928.8000, -51.968
1929.2000, -51.909
1929.6000, -51.885
1930.0000, -51.863
1930.4000, -51.856
1930.8000, -51.799
1931.2000, -51.777
1931.6000, -51.702
1932.0000, -51.632
1932.4000, -51.578
1932.8000, -51.555
1933.2000, -51.504
1933.6000, -51.475
1934.0000, -51.407
1934.4000, -51.321
1934.8000, -51.236
1935.2000, -51.216
1935.6000, -51.183
1936.0000, -51.108
1936.4000, -50.994
1936.8000, -50.952
1937.2000, -50.920
1937.6000, -50.821
1938.0000, -50.767
1938.4000, -50.717
1938.8000, -50.653
1939.2000, -50.577
1939.6000, -50.488
1940.0000, -50.472
1940.4000, -50.416
1940.8000, -50.335
1941.2000, -50.319
1941.6000, -50.214
1942.0000, -50.168
1942.4000, -50.117
1942.8000, -50.078
1943.2000, -50.029
1943.6000, -50.001
1944.0000, -49.976
1944.4000, -49.954
1944.8000, -49.891
1945.2000, -49.869
1945.6000, -49.843
1946.0000, -49.840
1946.4000, -49.800
1946.8000, -49.808
1947.2000, -49.788
1947.6000, -49.785
1948.0000, -49.768
1948.4000, -49.811
1948.8000, -49.789
1949.2000, -49.805
1949.6000, -49.820
1950.0000, -49.843
1950.4000, -49.876
1950.8000, -49.900
1951.2000, -49.941
1951.6000, -49.955
1952.0000, -50.036
1952.4000, -50.092
1952.8000, -50.144
1953.2000, -50.199
1953.6000, -50.271
1954.0000, -50.328
1954.4000, -50.427
1954.8000, -50.479
1955.2000, -50.547
1955.6000, -50.637
1956.0000, -50.713
1956.4000, -50.791
1956.8000, -50.861
1957.2000, -51.004
1957.6000, -51.055
1958.0000, -51.170
1958.4000, -51.228
1958.8000, -51.383
1959.2000, -51.507
1959.6000, -51.556
1960.0000, -51.696
1960.4000, -51.833
1960.8000, -51.974
1961.2000, -52.043
1961.6000, -52.144
1962.0000, -52.325
1962.4000, -52.421
1962.8000, -52.468
1963.2000, -52.609
1963.6000, -52.789
1964.0000, -52.855
1964.4000, -52.957
1964.8000, -53.100
1965.2000, -53.261
1965.6000, -53.355
1966.0000, -53.543
1966.4000, -53.595
1966.8000, -53.863
1967.2000, -53.883
1967.6000, -54.028
1968.0000, -54.184
1968.4000, -54.297
1968.8000, -54.426
1969.2000, -54.540
1969.6000, -54.694
1970.0000, -54.838
1970.4000, -55.013
1970.8000, -55.116
1971.2000, -55.356
1971.6000, -55.465
1972.0000, -55.517
1972.4000, -55.722
1972.8000, -55.851
1973.2000, -55.932
1973.6000, -56.074
1974.0000, -56.301
1974.4000, -56.424
1974.8000, -56.521
1975.2000, -56.693
1975.6000, -56.799
1976.0000, -56.896
1976.4000, -57.207
1976.8000, -57.167
1977.2000, -57.237
1977.6000, -57.329
1978.0000, -57.632
1978.4000, -57.700
1978.8000, -57.860
1979.2000, -57.691
1979.6000, -57.797
1980.0000, -58.234
1980.4000, -58.114
1980.8000, -58.144
1981.2000, -58.381
1981.6000, -58.666
1982.0000, -58.505
1982.4000, -58.436
1982.8000, -59.080
1983.2000, -58.670
1983.6000, -59.100
1984.0000, -58.998
1984.4000, -59.060
1984.8000, -59.139
1985.2000, -59.349
1985.6000, -59.427
1986.0000, -59.254
1986.4000, -59.752
1986.8000, -59.613
1987.2000, -59.446
1987.6000, -59.663
1988.0000, -59.656
1988.4000, -60.129
1988.8000, -60.003
1989.2000, -60.098
1989.6000, -60.195
1990.0000, -60.250
1990.4000, -60.270
1990.8000, -60.089
1991.2000, -60.372
1991.6000, -59.998
1992.0000, -60.194
1992.4000, -60.318
1992.8000, -60.628
1993.2000, -60.350
1993.6000, -60.518
1994.0000, -60.519
1994.4000, -60.590
1994.8000, -60.833
1995.2000, -60.985
1995.6000, -60.743
1996.0000, -60.577
1996.4000, -60.891
1996.8000, -60.794
1997.2000, -60.639
1997.6000, -60.688
1998.0000, -60.943
1998.4000, -60.967
1998.8000, -61.237
1999.2000, -61.066
1999.6000, -60.833
2000.0000, -61.353
2000.4000, -60.953
2000.8000, -60.992
2001.2000, -61.158
2001.6000, -61.253
2002.0000, -61.150
2002.4000, -61.607
2002.8000, -61.042
2003.2000, -61.238
2003.6000, -61.358
2004.0000, -61.213
2004.4000, -61.374
2004.8000, -61.517
2005.2000, -61.555
2005.6000, -61.540
2006.0000, -61.184
2006.4000, -61.203
2006.8000, -61.103
2007.2000, -61.364
2007.6000, -61.052
2008.0000, -61.665
2008.4000, -61.620
2008.8000, -61.143
2009.2000, -61.800
2009.6000, -61.209
2010.0000, -61.334
2010.4000, -61.685
2010.8000, -61.658
2011.2000, -61.711
2011.6000, -61.893
2012.0000, -61.587
2012.4000, -61.289
2012.8000, -61.551
2013.2000, -61.706
2013.6000, -61.867
2014.0000, -61.688
2014.4000, -61.872
2014.8000, -61.808
2015.2000, -61.374
2015.6000, -61.353
2016.0000, -61.610
2016.4000, -61.669
2016.8000, -61.897
2017.2000, -62.171
2017.6000, -61.569
2018.0000, -61.400
2018.4000, -61.739
2018.8000, -61.762
2019.2000, -61.914
2019.6000, -61.981
2020.0000, -61.643
2020.4000, -61.686
2020.8000, -61.545
2021.2000, -62.115
2021.6000, -61.224
2022.0000, -62.076
2022.4000, -61.428
2022.8000, -61.321
2023.2000, -61.617
2023.6000, -61.746
2024.0000, -61.644
2024.4000, -61.309
2024.8000, -61.461
2025.2000, -61.989
2025.6000, -61.908
2026.0000, -61.692
2026.4000, -61.692
2026.8000, -61.972
2027.2000, -61.808
2027.6000, -61.674
2028.0000, -61.556
2028.4000, -61.903
2028.8000, -61.371
2029.2000, -61.737
2029.6000, -61.655
2030.0000, -61.630
2030.4000, -61.513
2030.8000, -61.871
2031.2000, -61.392
2031.6000, -61.500
2032.0000, -61.232
2032.4000, -61.697
2032.8000, -61.586
2033.2000, -61.158
2033.6000, -61.509
2034.0000, -61.130
2034.4000, -61.287
2034.8000, -61.145
2035.2000, -61.224
2035.6000, -61.080
2036.0000, -61.341
2036.4000, -61.105
2036.8000, -61.174
2037.2000, -61.144
2037.6000, -61.014
2038.0000, -60.603
2038.4000, -60.806
2038.8000, -60.787
2039.2000, -60.468
2039.6000, -60.774
2040.0000, -60.311
2040.4000, -60.533
2040.8000, -60.127
2041.2000, -60.330
2041.6000, -60.339
2042.0000, -60.072
2042.4000, -59.782
2042.8000, -59.891
2043.2000, -59.617
2043.6000, -59.893
2044.0000, -59.519
2044.4000, -59.300
2044.8000, -59.436
2045.2000, -59.054
2045.6000, -59.001
2046.0000, -58.914
2046.4000, -58.886
2046.8000, -58.767
2047.2000, -58.710
2047.6000, -58.381
2048.0000, -58.457
2048.4000, -58.400
2048.8000, -58.170
2049.2000, -58.073
2049.6000, -57.916
2050.0000, -57.808
2050.4000, -57.685
2050.8000, -57.651
2051.2000, -57.536
2051.6000, -57.344
2052.0000, -57.214
2052.4000, -57.278
2052.8000, -57.321
2053.2000, -57.210
2053.6000, -56.965
2054.0000, -56.940
2054.4000, -56.967
2054.8000, -56.687
2055.2000, -56.875
2055.6000, -56.625
2056.0000, -56.741
2056.4000, -56.697
2056.8000, -56.717
2057.2000, -56.800
2057.6000, -56.722
2058.0000, -56.677
2058.4000, -56.615
2058.8000, -56.715
2059.2000, -56.690
2059.6000, -56.797
2060.0000, -56.855
2060.4000, -56.819
2060.8000, -56.770
2061.2000, -56.849
2061.6000, -56.951
2062.0000, -57.076
2062.4000, -57.057
2062.8000, -57.103
2063.2000, -57.103
2063.6000, -57.182
2064.0000, -57.347
2064.4000, -57.450
2064.8000, -57.510
2065.2000, -57.596
2065.6000, -57.829
2066.0000, -57.774
2066.4000, -57.714
2066.8000, -57.877
2067.2000, -57.884
2067.6000, -57.979
2068.0000, -58.188
2068.4000, -58.276
2068.8000, -58.394
2069.2000, -58.457
2069.6000, -58.438
2070.0000, -58.658
2070.4000, -58.768
2070.8000, -58.781
2071.2000, -58.844
2071.6000, -58.900
2072.0000, -58.994
2072.4000, -59.060
2072.8000, -59.161
2073.2000, -59.115
2073.6000, -59.261
2074.0000, -59.536
2074.4000, -59.489
2074.8000, -59.568
2075.2000, -59.660
2075.6000, -59.743
2076.0000, -59.878
2076.4000, -59.709
2076.8000, -59.877
2077.2000, -59.814
2077.6000, -59.997
2078.0000, -59.897
2078.4000, -59.768
2078.8000, -60.003
2079.2000, -59.825
2079.6000, -59.723
2080.0000, -60.023
2080.4000, -59.858
2080.8000, -59.965
2081.2000, -59.875
2081.6000, -59.655
2082.0000, -60.148
2082.4000, -59.765
2082.8000, -59.986
2083.2000, -59.898
2083.6000, -59.501
2084.0000, -59.746
2084.4000, -59.706
2084.8000, -59.653
2085.2000, -59.678
2085.6000, -59.504
2086.0000, -59.542
2086.4000, -59.545
2086.8000, -59.651
2087.2000, -59.188
2087.6000, -59.234
2088.0000, -59.388
2088.4000, -59.363
2088.8000, -59.072
2089.2000, -59.586
2089.6000, -59.243
2090.0000, -59.385
2090.4000, -59.220
2090.8000, -59.020
2091.2000, -59.165
2091.6000, -59.323
2092.0000, -59.192
2092.4000, -58.956
2092.8000, -59.079
2093.2000, -58.866
2093.6000, -59.109
2094.0000, -59.045
2094.4000, -58.768
2094.8000, -58.865
2095.2000, -58.836
2095.6000, -58.725
2096.0000, -58.757
2096.4000, -58.776
2096.8000, -58.605
2097.2000, -58.627
2097.6000, -58.495
2098.0000, -58.310
2098.4000, -58.485
2098.8000, -58.350
2099.2000, -58.377
2099.6000, -58.209
2100.0000, -58.109
2100.4000, -57.881
2100.8000, -57.837
2101.2000, -57.690
2101.6000, -57.713
2102.0000, -57.775
2102.4000, -57.692
2102.8000, -57.509
2103.2000, -57.368
2103.6000, -57.227
2104.0000, -57.195
2104.4000, -57.040
2104.8000, -57.033
2105.2000, -56.820
2105.6000, -56.773
2106.0000, -56.598
2106.4000, -56.603
2106.8000, -56.425
2107.2000, -56.464
2107.6000, -56.290
2108.0000, -56.160
2108.4000, -56.125
2108.8000, -56.223
2109.2000, -55.913
2109.6000, -55.968
2110.0000, -55.900
2110.4000, -55.824
2110.8000, -55.631
2111.2000, -55.705
2111.6000, -55.626
2112.0000, -55.661
2112.4000, -55.585
2112.8000, -55.589
2113.2000, -55.602
2113.6000, -55.474
2114.0000, -55.620
2114.4000, -55.504
2114.8000, -55.630
2115.2000, -55.561
2115.6000, -55.659
2116.0000, -55.594
2116.4000, -55.733
2116.8000, -55.740
2117.2000, -55.740
2117.6000, -55.805
2118.0000, -55.811
2118.4000, -55.946
2118.8000, -55.988
2119.2000, -56.201
2119.6000, -56.233
2120.0000, -56.262
2120.4000, -56.430
2120.8000, -56.502
2121.2000, -56.636
2121.6000, -56.670
2122.0000, -56.853
2122.4000, -56.970
2122.8000, -57.099
2123.2000, -57.154
2123.6000, -57.319
2124.0000, -57.411
2124.4000, -57.538
2124.8000, -57.849
2125.2000, -57.667
2125.6000, -57.802
2126.0000, -58.012
2126.4000, -58.062
2126.8000, -58.301
2127.2000, -58.270
2127.6000, -58.450
2128.0000, -58.648
2128.4000, -58.742
2128.8000, -58.668
2129.2000, -58.589
2129.6000, -59.197
2130.0000, -59.119
2130.4000, -59.114
2130.8000, -59.227
2131.2000, -59.424
2131.6000, -59.483
2132.0000, -59.674
2132.4000, -59.620
2132.8000, -59.892
2133.2000, -60.214
2133.6000, -60.168
2134.0000, -60.330
2134.4000, -60.276
2134.8000, -60.542
2135.2000, -60.684
2135.6000, -60.513
2136.0000, -60.954
2136.4000, -60.980
2136.8000, -61.111
2137.2000, -61.350
2137.6000, -61.445
2138.0000, -61.447
2138.4000, -61.305
2138.8000, -61.739
2139.2000, -61.152
2139.6000, -61.396
2140.0000, -61.404
2140.4000, -61.431
2140.8000, -62.454
2141.2000, -61.831
2141.6000, -61.848
2142.0000, -62.092
2142.4000, -62.280
2142.8000, -61.784
2143.2000, -61.593
2143.6000, -62.393
2144.0000, -62.466
2144.4000, -62.135
2144.8000, -62.302
2145.2000, -62.060
2145.6000, -62.914
2146.0000, -62.033
2146.4000, -62.440
2146.8000, -62.699
2147.2000, -62.353
2147.6000, -62.080
2148.0000, -62.788
2148.4000, -62.628
2148.8000, -62.426
2149.2000, -62.573
2149.6000, -62.309
2150.0000, -62.445
2150.4000, -62.599
2150.8000, -62.069
2151.2000, -62.777
2151.6000, -62.886
2152.0000, -62.944
2152.4000, -62.744
2152.8000, -62.844
2153.2000, -62.791
2153.6000, -63.035
2154.0000, -62.766
2154.4000, -62.635
2154.8000, -62.536
2155.2000, -62.396
2155.6000, -62.528
2156.0000, -62.686
2156.4000, -62.609
2156.8000, -62.801
2157.2000, -62.164
2157.6000, -62.598
2158.0000, -62.951
2158.4000, -62.610
2158.8000, -62.729
2159.2000, -62.929
2159.6000, -63.004
2160.0000, -62.868
2160.4000, -62.539
2160.8000, -62.419
2161.2000, -62.729
2161.6000, -62.651
2162.0000, -62.741
2162.4000, -63.762
2162.8000, -62.806
2163.2000, -63.037
2163.6000, -63.004
2164.0000, -63.213
2164.4000, -63.145
2164.8000, -63.162
2165.2000, -62.762
2165.6000, -63.193
2166.0000, -63.157
2166.4000, -63.077
2166.8000, -62.875
2167.2000, -62.814
2167.6000, -62.810
2168.0000, -62.450
2168.4000, -63.289
2168.8000, -62.927
2169.2000, -62.975
2169.6000, -63.094
2170.0000, -62.804
2170.4000, -62.456
2170.8000, -63.088
2171.2000, -63.043
2171.6000, -62.520
2172.0000, -63.041
2172.4000, -62.753
2172.8000, -62.805
2173.2000, -62.493
2173.6000, -63.019
2174.0000, -62.887
2174.4000, -63.169
2174.8000, -63.095
2175.2000, -62.950
2175.6000, -62.875
2176.0000, -63.552
2176.4000, -62.629
2176.8000, -63.125
2177.2000, -62.972
2177.6000, -63.517
2178.0000, -62.728
2178.4000, -62.520
2178.8000, -62.922
2179.2000, -63.131
2179.6000, -63.387
2180.0000, -62.998
2180.4000, -62.682
2180.8000, -63.130
2181.2000, -62.788
2181.6000, -62.850
2182.0000, -63.434
2182.4000, -63.011
2182.8000, -62.782
2183.2000, -63.506
2183.6000, -63.049
2184.0000, -63.128
2184.4000, -62.874
2184.8000, -62.778
2185.2000, -62.695
2185.6000, -62.721
2186.0000, -62.847
2186.4000, -62.548
2186.8000, -63.360
2187.2000, -62.923
2187.6000, -62.871
2188.0000, -63.182
2188.4000, -63.525
2188.8000, -62.770
2189.2000, -62.722
2189.6000, -63.139
2190.0000, -62.930
2190.4000, -63.202
2190.8000, -62.998
2191.2000, -62.772
2191.6000, -62.548
2192.0000, -62.695
2192.4000, -62.905
2192.8000, -63.094
2193.2000, -62.350
2193.6000, -63.162
2194.0000, -62.629
2194.4000, -62.373
2194.8000, -62.730
2195.2000, -62.970
2195.6000, -62.832
2196.0000, -62.507
2196.4000, -62.652
2196.8000, -62.463
2197.2000, -62.406
2197.6000, -62.614
2198.0000, -63.078
2198.4000, -62.762
2198.8000, -62.690
2199.2000, -62.696
2199.6000, -62.751
2200.0000, -62.325
2200.4000, -62.839
2200.8000, -62.909
2201.2000, -62.945
2201.6000, -62.796
2202.0000, -62.912
2202.4000, -63.246
2202.8000, -62.640
2203.2000, -62.611
2203.6000, -63.137
2204.0000, -62.682
2204.4000, -62.561
2204.8000, -62.662
2205.2000, -63.179
2205.6000, -62.505
2206.0000, -63.050
2206.4000, -62.721
2206.8000, -62.836
2207.2000, -62.795
2207.6000, -62.811
2208.0000, -62.244
2208.4000, -62.670
2208.8000, -62.932
2209.2000, -62.613
2209.6000, -62.651
2210.0000, -63.058
2210.4000, -62.843
2210.8000, -62.475
2211.2000, -62.174
2211.6000, -62.753
2212.0000, -62.544
2212.4000, -62.367
2212.8000, -62.936
2213.2000, -62.712
2213.6000, -62.973
2214.0000, -61.895
2214.4000, -62.574
2214.8000, -62.422
2215.2000, -62.709
2215.6000, -62.891
2216.0000, -62.567
2216.4000, -62.741
2216.8000, -62.864
2217.2000, -62.368
2217.6000, -62.531
2218.0000, -62.308
2218.4000, -63.017
2218.8000, -62.322
2219.2000, -62.467
2219.6000, -62.963
2220.0000, -62.375
2220.4000, -72.929
2220.8000,-210.000
2221.2000, -69.967
2221.6000, -73.812
2222.0000,-210.000
2222.4000, -69.217
2222.8000, -74.113
2223.2000, -79.546
2223.6000, -70.626
2224.0000, -80.478
2224.4000, -72.918
2224.8000, -72.115
2225.2000, -69.873
2225.6000, -69.958
2226.0000, -71.018
2226.4000, -74.948
2226.8000, -68.839
2227.2000, -69.794
2227.6000, -70.732
2228.0000, -74.608
2228.4000, -69.725
2228.8000, -75.042
2229.2000, -71.738
2229.6000, -71.634
2230.0000,-210.000
2230.4000, -67.748
2230.8000, -70.501
2231.2000, -71.072
2231.6000, -70.554
2232.0000, -70.646
2232.4000, -69.547
2232.8000, -69.401
2233.2000, -71.067
2233.6000, -73.520
2234.0000, -71.672
2234.4000, -69.340
2234.8000, -78.977
2235.2000, -70.183
2235.6000, -71.673
2236.0000, -69.584
2236.4000, -80.430
2236.8000, -72.375
2237.2000, -70.386
2237.6000, -80.349
2238.0000, -69.303
2238.4000, -70.536
2238.8000, -69.535
2239.2000,-210.000
2239.6000, -78.308
2240.0000, -69.171
2240.4000, -73.215
2240.8000, -76.188
2241.2000, -72.058
2241.6000, -72.392
2242.0000,-210.000
2242.4000, -69.325
2242.8000, -69.561
2243.2000, -82.497
2243.6000, -71.647
2244.0000, -79.097
2244.4000, -70.496
2244.8000, -74.226
2245.2000, -69.343
2245.6000, -68.984
2246.0000, -69.403
2246.4000, -70.370
2246.8000, -74.238
2247.2000, -71.472
2247.6000, -70.548
2248.0000, -75.290
2248.4000, -70.403
2248.8000, -73.024
2249.2000, -73.640
2249.6000, -73.364
2250.0000, -69.714
2250.4000,-210.000
2250.8000, -73.848
2251.2000, -69.632
2251.6000, -71.822
2252.0000, -68.975
2252.4000, -74.470
2252.8000, -69.488
2253.2000, -73.050
2253.6000, -73.296
2254.0000, -69.869
2254.4000, -73.518
2254.8000, -69.338
2255.2000, -70.301
2255.6000, -76.296
2256.0000,-210.000
2256.4000, -73.221
2256.8000, -72.696
2257.2000, -72.384
2257.6000, -78.270
2258.0000, -72.528
2258.4000, -70.825
2258.8000, -68.325
2259.2000, -73.217
2259.6000, -74.629
2260.0000, -70.566
2260.4000, -70.295
2260.8000, -73.042
2261.2000, -69.318
2261.6000, -70.227
2262.0000, -72.556
2262.4000, -81.720
2262.8000, -72.647
2263.2000, -82.237
2263.6000, -72.945
2264.0000, -68.484
2264.4000, -72.700
2264.8000, -71.435
2265.2000, -74.146
2265.6000, -70.902
2266.0000, -73.576
2266.4000, -76.113
2266.8000,-210.000
2267.2000,-210.000
2267.6000, -69.375
2268.0000, -72.150
2268.4000, -73.274
2268.8000, -73.683
2269.2000, -71.877
2269.6000, -74.488
2270.0000, -71.582
2270.4000, -72.112
2270.8000, -76.984
2271.2000, -72.947
2271.6000,-210.000
2272.0000, -76.483
2272.4000, -72.896
2272.8000, -69.785
2273.2000, -74.848
2273.6000,-210.000
2274.0000, -71.530
2274.4000, -71.261
2274.8000,-210.000
2275.2000, -80.278
2275.6000, -71.857
2276.0000, -73.977
2276.4000, -69.532
2276.8000, -73.523
2277.2000,-210.000
2277.6000, -69.833
2278.0000, -75.186
2278.4000, -77.783
2278.8000, -96.422
2279.2000, -72.656
2279.6000, -71.569
2280.0000, -68.973
2280.4000, -71.562
2280.8000, -74.336
2281.2000, -69.359
2281.6000,-210.000
2282.0000, -69.104
2282.4000, -73.966
2282.8000, -69.104
2283.2000, -77.478
2283.6000, -72.544
2284.0000, -71.505
2284.4000, -73.195
2284.8000, -73.583
2285.2000, -70.869
2285.6000, -70.187
2286.0000, -73.276
2286.4000, -76.656
2286.8000, -70.017
2287.2000, -70.180
2287.6000, -70.698
2288.0000,-210.000
2288.4000, -70.121
2288.8000, -70.472
2289.2000,-210.000
2289.6000, -72.212
2290.0000, -72.200
2290.4000, -70.632
2290.8000, -67.752
2291.2000, -72.185
2291.6000, -71.963
2292.0000, -71.222
2292.4000,-210.000
2292.8000, -75.420
2293.2000, -73.864
2293.6000, -75.468
2294.0000, -69.643
2294.4000, -67.551
2294.8000, -78.505
2295.2000, -74.925
2295.6000, -69.391
2296.0000, -75.730
2296.4000, -69.823
2296.8000, -69.416
2297.2000, -69.686
2297.6000, -72.012
2298.0000, -67.758
2298.4000, -74.604
2298.8000, -71.775
2299.2000, -72.412
2299.6000, -71.415
2300.0000, -70.143
