75ECSV 	
// AQ6375E OPTICAL SPECTRUM ANALYZER //
40
"CTRWL",1650.000000
"SPAN",1300.000000
"START WL",1000.000000
"STOP WL",2300.000000
"WLFREQ", 0
"REFL", -9.6
"LSCL",10.0
"RESLN",2.000
"CUSTOM RES",0
"AVG",   1
"SMPLAUTO",      0
"SMPL",       3251
"SMPLINTVL",0.4000
"NORMAL"
"SENS LEVEL",-67.0
"MEAS"
"LSUNT",0
"NMSKH","OFF"
"RESCOR",0
"SMOOTH",0
"MEASWL",1
"MODELNAME",AQ6375E
"NEBWCAL0",    0
"NEBWCAL1",    0
"NEBWCALWL",   0
"RESCAL0_0",   9977
"RESCAL0_1",      0
"RESCAL0_2",      0
"RESCAL1_0",   9977
"RESCAL1_1",      0
"RESCAL1_2",      0









"[TRACE DATA]"
1000.0000, -31.810
1000.4000, -31.210
1000.8000, -31.228
1001.2000, -31.816
1001.6000, -32.146
1002.0000, -31.682
1002.4000, -31.148
1002.8000, -31.281
1003.2000, -31.983
1003.6000, -32.329
1004.0000, -31.903
1004.4000, -31.553
1004.8000, -31.941
1005.2000, -32.829
1005.6000, -33.207
1006.0000, -32.811
1006.4000, -32.636
1006.8000, -33.226
1007.2000, -34.208
1007.6000, -34.475
1008.0000, -34.064
1008.4000, -34.054
1008.8000, -34.836
1009.2000, -35.834
1009.6000, -35.969
1010.0000, -35.539
1010.4000, -35.655
1010.8000, -36.517
1011.2000, -37.388
1011.6000, -37.205
1012.0000, -36.800
1012.4000, -36.990
1012.8000, -37.893
1013.2000, -38.492
1013.6000, -37.925
1014.0000, -37.248
1014.4000, -37.389
1014.8000, -38.026
1015.2000, -38.051
1015.6000, -37.138
1016.0000, -36.476
1016.4000, -36.720
1016.8000, -37.235
1017.2000, -36.814
1017.6000, -35.794
1018.0000, -35.422
1018.4000, -35.873
1018.8000, -36.089
1019.2000, -35.213
1019.6000, -34.321
1020.0000, -34.320
1020.4000, -34.882
1020.8000, -34.724
1021.2000, -33.778
1021.6000, -33.353
1022.0000, -33.869
1022.4000, -34.347
1022.8000, -33.711
1023.2000, -32.875
1023.6000, -32.930
1024.0000, -33.604
1024.4000, -33.548
1024.8000, -32.668
1025.2000, -32.305
1025.6000, -32.885
1026.0000, -33.417
1026.4000, -32.857
1026.8000, -32.229
1027.2000, -32.524
1027.6000, -33.352
1028.0000, -33.322
1028.4000, -32.590
1028.8000, -32.500
1029.2000, -33.263
1029.6000, -33.731
1030.0000, -33.076
1030.4000, -32.610
1030.8000, -33.098
1031.2000, -33.867
1031.6000, -33.617
1032.0000, -33.020
1032.4000, -33.275
1032.8000, -34.209
1033.2000, -34.476
1033.6000, -33.862
1034.0000, -33.815
1034.4000, -34.673
1034.8000, -35.245
1035.2000, -34.751
1035.6000, -34.414
1036.0000, -35.048
1036.4000, -35.899
1036.8000, -35.710
1037.2000, -35.282
1037.6000, -35.764
1038.0000, -36.814
1038.4000, -36.943
1038.8000, -36.447
1039.2000, -36.735
1039.6000, -37.760
1040.0000, -38.218
1040.4000, -37.663
1040.8000, -37.708
1041.2000, -38.685
1041.6000, -39.306
1042.0000, -38.839
1042.4000, -38.757
1042.8000, -39.670
1043.2000, -40.541
1043.6000, -40.172
1044.0000, -39.990
1044.4000, -40.899
1044.8000, -41.842
1045.2000, -41.617
1045.6000, -41.336
1046.0000, -42.084
1046.4000, -43.127
1046.8000, -42.891
1047.2000, -42.573
1047.6000, -43.163
1048.0000, -44.254
1048.4000, -43.985
1048.8000, -43.526
1049.2000, -43.993
1049.6000, -44.916
1050.0000, -44.637
1050.4000, -43.970
1050.8000, -44.365
1051.2000, -45.139
1051.6000, -44.877
1052.0000, -44.012
1052.4000, -44.276
1052.8000, -44.970
1053.2000, -44.514
1053.6000, -43.744
1054.0000, -43.719
1054.4000, -44.442
1054.8000, -44.007
1055.2000, -43.181
1055.6000, -43.316
1056.0000, -43.864
1056.4000, -43.443
1056.8000, -42.719
1057.2000, -42.959
1057.6000, -43.390
1058.0000, -42.943
1058.4000, -42.254
1058.8000, -42.459
1059.2000, -42.993
1059.6000, -42.316
1060.0000, -41.764
1060.4000, -42.131
1060.8000, -42.460
1061.2000, -41.935
1061.6000, -41.528
1062.0000, -42.071
1062.4000, -42.321
1062.8000, -41.759
1063.2000, -41.511
1063.6000, -42.063
1064.0000, -42.164
1064.4000, -41.435
1064.8000, -41.392
1065.2000, -41.997
1065.6000, -41.815
1066.0000, -41.202
1066.4000, -41.400
1066.8000, -41.939
1067.2000, -41.593
1067.6000, -41.085
1068.0000, -41.465
1068.4000, -41.975
1068.8000, -41.448
1069.2000, -41.212
1069.6000, -41.833
1070.0000, -42.106
1070.4000, -41.550
1070.8000, -41.527
1071.2000, -42.108
1071.6000, -42.115
1072.0000, -41.544
1072.4000, -41.869
1072.8000, -42.388
1073.2000, -42.083
1073.6000, -41.801
1074.0000, -42.359
1074.4000, -42.750
1074.8000, -42.285
1075.2000, -42.181
1075.6000, -42.949
1076.0000, -42.952
1076.4000, -42.583
1076.8000, -42.953
1077.2000, -43.512
1077.6000, -43.375
1078.0000, -43.188
1078.4000, -43.856
1078.8000, -44.256
1079.2000, -43.842
1079.6000, -44.037
1080.0000, -44.822
1080.4000, -44.701
1080.8000, -44.452
1081.2000, -44.916
1081.6000, -45.447
1082.0000, -45.241
1082.4000, -45.465
1082.8000, -46.294
1083.2000, -46.422
1083.6000, -46.246
1084.0000, -46.877
1084.4000, -47.409
1084.8000, -47.433
1085.2000, -47.755
1085.6000, -48.369
1086.0000, -48.925
1086.4000, -48.987
1086.8000, -49.343
1087.2000, -50.081
1087.6000, -50.474
1088.0000, -50.414
1088.4000, -51.759
1088.8000, -51.894
1089.2000, -51.878
1089.6000, -52.897
1090.0000, -53.720
1090.4000, -54.433
1090.8000, -54.754
1091.2000, -57.297
1091.6000, -57.120
1092.0000, -58.655
1092.4000, -57.672
1092.8000, -59.902
1093.2000, -58.906
1093.6000, -59.465
1094.0000, -61.153
1094.4000, -61.716
1094.8000, -59.771
1095.2000, -67.803
1095.6000, -57.556
1096.0000, -61.344
1096.4000, -64.210
1096.8000, -60.959
1097.2000, -61.353
1097.6000, -60.575
1098.0000, -60.887
1098.4000, -57.621
1098.8000, -56.482
1099.2000, -57.989
1099.6000, -58.363
1100.0000, -56.138
1100.4000, -57.927
1100.8000, -57.299
1101.2000, -56.051
1101.6000, -56.144
1102.0000, -55.751
1102.4000, -56.883
1102.8000, -55.883
1103.2000, -56.772
1103.6000, -56.865
1104.0000, -55.851
1104.4000, -55.837
1104.8000, -55.545
1105.2000, -56.469
1105.6000, -55.670
1106.0000, -56.553
1106.4000, -56.068
1106.8000, -56.888
1107.2000, -56.540
1107.6000, -58.683
1108.0000, -57.223
1108.4000, -58.409
1108.8000, -57.658
1109.2000, -59.408
1109.6000, -58.344
1110.0000, -61.251
1110.4000, -57.572
1110.8000, -58.209
1111.2000, -59.905
1111.6000, -59.724
1112.0000, -61.547
1112.4000, -60.008
1112.8000, -58.600
1113.2000, -61.624
1113.6000,-210.000
1114.0000, -60.371
1114.4000,-210.000
1114.8000, -60.601
1115.2000, -62.581
1115.6000,-210.000
1116.0000, -60.522
1116.4000, -67.123
1116.8000, -63.870
1117.2000, -71.122
1117.6000, -67.223
1118.0000, -60.780
1118.4000, -64.042
1118.8000, -60.015
1119.2000, -66.584
1119.6000, -62.295
1120.0000, -58.303
1120.4000, -61.200
1120.8000, -59.178
1121.2000, -60.788
1121.6000, -59.816
1122.0000, -60.816
1122.4000, -58.484
1122.8000, -57.976
1123.2000, -61.483
1123.6000, -57.985
1124.0000, -56.288
1124.4000, -58.520
1124.8000, -55.850
1125.2000, -55.906
1125.6000, -56.077
1126.0000, -56.244
1126.4000, -54.769
1126.8000, -54.703
1127.2000, -55.917
1127.6000, -55.094
1128.0000, -54.893
1128.4000, -54.630
1128.8000, -54.016
1129.2000, -54.148
1129.6000, -53.572
1130.0000, -53.822
1130.4000, -53.271
1130.8000, -53.529
1131.2000, -53.103
1131.6000, -53.352
1132.0000, -52.547
1132.4000, -52.666
1132.8000, -52.829
1133.2000, -52.633
1133.6000, -52.902
1134.0000, -52.655
1134.4000, -52.470
1134.8000, -52.964
1135.2000, -52.418
1135.6000, -52.650
1136.0000, -52.727
1136.4000, -52.914
1136.8000, -52.011
1137.2000, -52.514
1137.6000, -52.601
1138.0000, -52.522
1138.4000, -52.742
1138.8000, -52.647
1139.2000, -52.499
1139.6000, -53.286
1140.0000, -52.612
1140.4000, -53.237
1140.8000, -52.869
1141.2000, -53.055
1141.6000, -53.855
1142.0000, -53.267
1142.4000, -53.116
1142.8000, -53.260
1143.2000, -54.097
1143.6000, -53.622
1144.0000, -53.824
1144.4000, -53.336
1144.8000, -53.219
1145.2000, -53.630
1145.6000, -53.508
1146.0000, -53.223
1146.4000, -53.698
1146.8000, -53.204
1147.2000, -53.136
1147.6000, -53.587
1148.0000, -53.657
1148.4000, -53.123
1148.8000, -53.583
1149.2000, -52.907
1149.6000, -53.467
1150.0000, -53.136
1150.4000, -52.450
1150.8000, -53.554
1151.2000, -53.032
1151.6000, -53.067
1152.0000, -53.133
1152.4000, -52.685
1152.8000, -53.070
1153.2000, -53.949
1153.6000, -52.241
1154.0000, -52.943
1154.4000, -53.154
1154.8000, -52.878
1155.2000, -52.736
1155.6000, -53.444
1156.0000, -52.549
1156.4000, -53.270
1156.8000, -52.991
1157.2000, -52.744
1157.6000, -53.214
1158.0000, -52.731
1158.4000, -52.724
1158.8000, -52.769
1159.2000, -52.433
1159.6000, -52.553
1160.0000, -52.782
1160.4000, -52.428
1160.8000, -52.839
1161.2000, -52.115
1161.6000, -52.256
1162.0000, -52.362
1162.4000, -52.002
1162.8000, -52.357
1163.2000, -51.626
1163.6000, -51.816
1164.0000, -52.102
1164.4000, -51.696
1164.8000, -51.695
1165.2000, -51.502
1165.6000, -51.462
1166.0000, -51.356
1166.4000, -51.158
1166.8000, -51.177
1167.2000, -51.527
1167.6000, -50.355
1168.0000, -50.693
1168.4000, -50.725
1168.8000, -50.364
1169.2000, -50.632
1169.6000, -50.059
1170.0000, -50.296
1170.4000, -50.239
1170.8000, -49.991
1171.2000, -50.197
1171.6000, -49.676
1172.0000, -49.627
1172.4000, -49.693
1172.8000, -49.340
1173.2000, -49.741
1173.6000, -49.394
1174.0000, -49.220
1174.4000, -49.530
1174.8000, -49.149
1175.2000, -49.486
1175.6000, -49.137
1176.0000, -48.960
1176.4000, -49.462
1176.8000, -48.901
1177.2000, -49.420
1177.6000, -49.189
1178.0000, -49.124
1178.4000, -49.437
1178.8000, -48.994
1179.2000, -49.467
1179.6000, -49.411
1180.0000, -49.424
1180.4000, -49.794
1180.8000, -49.301
1181.2000, -49.749
1181.6000, -49.814
1182.0000, -49.545
1182.4000, -50.080
1182.8000, -49.789
1183.2000, -50.082
1183.6000, -50.281
1184.0000, -50.324
1184.4000, -50.885
1184.8000, -50.417
1185.2000, -50.792
1185.6000, -50.970
1186.0000, -51.102
1186.4000, -51.761
1186.8000, -51.449
1187.2000, -51.750
1187.6000, -51.744
1188.0000, -51.784
1188.4000, -52.576
1188.8000, -52.657
1189.2000, -52.475
1189.6000, -52.769
1190.0000, -52.991
1190.4000, -53.332
1190.8000, -52.966
1191.2000, -53.847
1191.6000, -53.455
1192.0000, -53.633
1192.4000, -54.194
1192.8000, -53.638
1193.2000, -54.166
1193.6000, -54.532
1194.0000, -54.524
1194.4000, -54.564
1194.8000, -54.353
1195.2000, -54.486
1195.6000, -54.871
1196.0000, -55.307
1196.4000, -54.778
1196.8000, -55.028
1197.2000, -55.328
1197.6000, -55.014
1198.0000, -55.257
1198.4000, -55.253
1198.8000, -55.271
1199.2000, -55.398
1199.6000, -54.907
1200.0000, -55.173
1200.4000, -55.507
1200.8000, -55.080
1201.2000, -54.841
1201.6000, -55.546
1202.0000, -55.098
1202.4000, -55.396
1202.8000, -55.585
1203.2000, -55.161
1203.6000, -55.671
1204.0000, -55.281
1204.4000, -55.846
1204.8000, -55.677
1205.2000, -55.588
1205.6000, -55.984
1206.0000, -56.178
1206.4000, -56.905
1206.8000, -55.577
1207.2000, -55.607
1207.6000, -55.904
1208.0000, -56.866
1208.4000, -56.769
1208.8000, -56.682
1209.2000, -57.376
1209.6000, -56.926
1210.0000, -57.536
1210.4000, -56.690
1210.8000, -57.530
1211.2000, -57.024
1211.6000, -57.669
1212.0000, -58.031
1212.4000, -57.611
1212.8000, -58.323
1213.2000, -57.366
1213.6000, -57.966
1214.0000, -57.472
1214.4000, -58.349
1214.8000, -58.461
1215.2000, -58.374
1215.6000, -58.502
1216.0000, -58.700
1216.4000, -57.392
1216.8000, -58.008
1217.2000, -58.346
1217.6000, -58.043
1218.0000, -58.075
1218.4000, -58.001
1218.8000, -58.016
1219.2000, -58.955
1219.6000, -58.253
1220.0000, -58.653
1220.4000, -59.173
1220.8000, -59.648
1221.2000, -58.214
1221.6000, -57.775
1222.0000, -57.830
1222.4000, -59.581
1222.8000, -57.047
1223.2000, -58.356
1223.6000, -59.756
1224.0000, -57.906
1224.4000, -57.469
1224.8000, -56.708
1225.2000, -56.545
1225.6000, -56.880
1226.0000, -56.542
1226.4000, -56.197
1226.8000, -57.048
1227.2000, -56.051
1227.6000, -55.555
1228.0000, -55.717
1228.4000, -56.680
1228.8000, -55.497
1229.2000, -55.373
1229.6000, -54.903
1230.0000, -54.863
1230.4000, -54.686
1230.8000, -54.378
1231.2000, -54.440
1231.6000, -54.414
1232.0000, -54.356
1232.4000, -54.031
1232.8000, -54.508
1233.2000, -53.802
1233.6000, -54.131
1234.0000, -54.074
1234.4000, -53.888
1234.8000, -54.130
1235.2000, -53.868
1235.6000, -54.053
1236.0000, -54.021
1236.4000, -53.830
1236.8000, -54.031
1237.2000, -54.076
1237.6000, -53.990
1238.0000, -54.364
1238.4000, -54.303
1238.8000, -54.375
1239.2000, -54.642
1239.6000, -54.642
1240.0000, -54.562
1240.4000, -54.615
1240.8000, -54.397
1241.2000, -55.074
1241.6000, -55.098
1242.0000, -54.841
1242.4000, -54.953
1242.8000, -54.875
1243.2000, -55.098
1243.6000, -55.155
1244.0000, -55.445
1244.4000, -54.791
1244.8000, -55.115
1245.2000, -54.839
1245.6000, -55.471
1246.0000, -54.682
1246.4000, -55.081
1246.8000, -54.583
1247.2000, -54.717
1247.6000, -54.544
1248.0000, -54.211
1248.4000, -53.877
1248.8000, -53.653
1249.2000, -54.019
1249.6000, -53.701
1250.0000, -53.289
1250.4000, -53.188
1250.8000, -53.405
1251.2000, -52.919
1251.6000, -52.846
1252.0000, -52.808
1252.4000, -52.808
1252.8000, -52.381
1253.2000, -52.619
1253.6000, -52.688
1254.0000, -52.178
1254.4000, -52.396
1254.8000, -52.345
1255.2000, -52.186
1255.6000, -52.250
1256.0000, -52.381
1256.4000, -52.322
1256.8000, -52.390
1257.2000, -52.399
1257.6000, -52.282
1258.0000, -52.460
1258.4000, -52.689
1258.8000, -52.639
1259.2000, -52.832
1259.6000, -52.811
1260.0000, -52.997
1260.4000, -53.143
1260.8000, -53.539
1261.2000, -53.444
1261.6000, -53.576
1262.0000, -53.954
1262.4000, -53.827
1262.8000, -54.274
1263.2000, -54.367
1263.6000, -54.549
1264.0000, -54.249
1264.4000, -54.638
1264.8000, -54.862
1265.2000, -55.001
1265.6000, -55.138
1266.0000, -55.064
1266.4000, -55.915
1266.8000, -55.483
1267.2000, -55.665
1267.6000, -55.357
1268.0000, -55.560
1268.4000, -55.485
1268.8000, -55.338
1269.2000, -55.087
1269.6000, -55.458
1270.0000, -55.133
1270.4000, -55.022
1270.8000, -55.151
1271.2000, -54.934
1271.6000, -54.979
1272.0000, -54.468
1272.4000, -54.879
1272.8000, -54.625
1273.2000, -54.603
1273.6000, -54.464
1274.0000, -54.417
1274.4000, -54.391
1274.8000, -54.354
1275.2000, -54.567
1275.6000, -54.311
1276.0000, -54.383
1276.4000, -54.277
1276.8000, -54.546
1277.2000, -54.759
1277.6000, -54.778
1278.0000, -54.986
1278.4000, -55.395
1278.8000, -55.337
1279.2000, -55.259
1279.6000, -55.780
1280.0000, -55.836
1280.4000, -56.354
1280.8000, -56.111
1281.2000, -56.853
1281.6000, -56.545
1282.0000, -57.389
1282.4000, -57.207
1282.8000, -57.958
1283.2000, -57.798
1283.6000, -57.555
1284.0000, -58.912
1284.4000, -58.979
1284.8000, -58.700
1285.2000, -58.887
1285.6000, -59.256
1286.0000, -59.157
1286.4000, -59.658
1286.8000, -59.421
1287.2000, -60.185
1287.6000, -59.414
1288.0000, -59.731
1288.4000, -59.475
1288.8000, -60.242
1289.2000, -59.901
1289.6000, -59.776
1290.0000, -59.698
1290.4000, -60.498
1290.8000, -59.892
1291.2000, -60.043
1291.6000, -60.376
1292.0000, -60.104
1292.4000, -60.792
1292.8000, -60.252
1293.2000, -60.729
1293.6000, -60.645
1294.0000, -59.733
1294.4000, -61.014
1294.8000, -60.607
1295.2000, -61.571
1295.6000, -60.147
1296.0000, -61.409
1296.4000, -60.936
1296.8000, -60.634
1297.2000, -61.131
1297.6000, -61.142
1298.0000, -62.221
1298.4000, -61.227
1298.8000, -61.635
1299.2000, -60.950
1299.6000, -61.720
1300.0000, -61.887
1300.4000, -63.292
1300.8000, -60.875
1301.2000, -61.567
1301.6000, -63.352
1302.0000, -62.233
1302.4000, -61.303
1302.8000, -61.700
1303.2000, -62.533
1303.6000, -61.217
1304.0000, -60.279
1304.4000, -60.166
1304.8000, -61.523
1305.2000, -60.054
1305.6000, -59.287
1306.0000, -58.997
1306.4000, -59.697
1306.8000, -58.195
1307.2000, -58.318
1307.6000, -58.151
1308.0000, -57.414
1308.4000, -56.936
1308.8000, -57.037
1309.2000, -56.341
1309.6000, -56.064
1310.0000, -55.882
1310.4000, -55.620
1310.8000, -55.497
1311.2000, -54.551
1311.6000, -54.210
1312.0000, -54.016
1312.4000, -53.914
1312.8000, -53.747
1313.2000, -53.508
1313.6000, -53.232
1314.0000, -53.164
1314.4000, -52.988
1314.8000, -52.745
1315.2000, -52.585
1315.6000, -52.554
1316.0000, -52.578
1316.4000, -52.443
1316.8000, -52.336
1317.2000, -52.565
1317.6000, -52.360
1318.0000, -52.484
1318.4000, -52.430
1318.8000, -52.506
1319.2000, -52.477
1319.6000, -52.552
1320.0000, -52.449
1320.4000, -52.347
1320.8000, -52.340
1321.2000, -52.243
1321.6000, -52.295
1322.0000, -52.025
1322.4000, -51.958
1322.8000, -51.917
1323.2000, -51.670
1323.6000, -51.386
1324.0000, -51.246
1324.4000, -51.020
1324.8000, -50.935
1325.2000, -50.559
1325.6000, -50.258
1326.0000, -50.160
1326.4000, -49.910
1326.8000, -49.804
1327.2000, -49.733
1327.6000, -49.551
1328.0000, -49.459
1328.4000, -49.431
1328.8000, -49.317
1329.2000, -49.262
1329.6000, -49.238
1330.0000, -49.321
1330.4000, -49.289
1330.8000, -49.458
1331.2000, -49.429
1331.6000, -49.560
1332.0000, -49.768
1332.4000, -49.863
1332.8000, -50.158
1333.2000, -50.286
1333.6000, -50.361
1334.0000, -50.588
1334.4000, -50.796
1334.8000, -50.984
1335.2000, -51.011
1335.6000, -51.324
1336.0000, -51.526
1336.4000, -51.678
1336.8000, -51.746
1337.2000, -51.811
1337.6000, -51.874
1338.0000, -51.983
1338.4000, -51.906
1338.8000, -51.934
1339.2000, -51.748
1339.6000, -51.658
1340.0000, -51.676
1340.4000, -51.495
1340.8000, -51.371
1341.2000, -51.280
1341.6000, -51.188
1342.0000, -51.044
1342.4000, -50.999
1342.8000, -50.926
1343.2000, -50.850
1343.6000, -50.742
1344.0000, -50.692
1344.4000, -50.691
1344.8000, -50.623
1345.2000, -50.830
1345.6000, -50.976
1346.0000, -50.979
1346.4000, -51.005
1346.8000, -51.273
1347.2000, -51.489
1347.6000, -51.646
1348.0000, -51.890
1348.4000, -52.131
1348.8000, -52.105
1349.2000, -52.508
1349.6000, -52.819
1350.0000, -52.996
1350.4000, -53.239
1350.8000, -53.319
1351.2000, -53.570
1351.6000, -53.914
1352.0000, -54.054
1352.4000, -54.225
1352.8000, -54.036
1353.2000, -54.296
1353.6000, -54.586
1354.0000, -54.589
1354.4000, -54.780
1354.8000, -54.848
1355.2000, -54.556
1355.6000, -54.704
1356.0000, -54.843
1356.4000, -55.017
1356.8000, -55.081
1357.2000, -54.826
1357.6000, -55.316
1358.0000, -55.392
1358.4000, -55.622
1358.8000, -55.645
1359.2000, -56.302
1359.6000, -56.252
1360.0000, -56.720
1360.4000, -56.989
1360.8000, -57.355
1361.2000, -58.085
1361.6000, -58.162
1362.0000, -58.105
1362.4000, -59.095
1362.8000, -59.010
1363.2000, -59.864
1363.6000, -60.697
1364.0000, -59.928
1364.4000, -60.568
1364.8000, -60.800
1365.2000, -60.105
1365.6000, -61.065
1366.0000, -60.771
1366.4000, -59.732
1366.8000, -60.292
1367.2000, -59.848
1367.6000, -59.186
1368.0000, -59.065
1368.4000, -58.841
1368.8000, -58.751
1369.2000, -57.552
1369.6000, -57.472
1370.0000, -57.313
1370.4000, -56.395
1370.8000, -55.788
1371.2000, -55.467
1371.6000, -54.838
1372.0000, -54.702
1372.4000, -54.051
1372.8000, -53.645
1373.2000, -53.508
1373.6000, -53.096
1374.0000, -52.929
1374.4000, -52.641
1374.8000, -52.529
1375.2000, -52.484
1375.6000, -52.274
1376.0000, -52.117
1376.4000, -52.158
1376.8000, -52.030
1377.2000, -51.862
1377.6000, -51.970
1378.0000, -52.170
1378.4000, -52.009
1378.8000, -51.943
1379.2000, -51.982
1379.6000, -52.116
1380.0000, -52.014
1380.4000, -51.983
1380.8000, -51.948
1381.2000, -51.915
1381.6000, -51.881
1382.0000, -51.670
1382.4000, -51.430
1382.8000, -51.300
1383.2000, -51.172
1383.6000, -50.995
1384.0000, -50.677
1384.4000, -50.435
1384.8000, -50.214
1385.2000, -50.013
1385.6000, -49.898
1386.0000, -49.674
1386.4000, -49.468
1386.8000, -49.446
1387.2000, -49.377
1387.6000, -49.348
1388.0000, -49.344
1388.4000, -49.273
1388.8000, -49.286
1389.2000, -49.338
1389.6000, -49.331
1390.0000, -49.387
1390.4000, -49.443
1390.8000, -49.568
1391.2000, -49.593
1391.6000, -49.748
1392.0000, -49.771
1392.4000, -49.731
1392.8000, -49.707
1393.2000, -49.635
1393.6000, -49.533
1394.0000, -49.377
1394.4000, -49.289
1394.8000, -49.103
1395.2000, -49.013
1395.6000, -48.810
1396.0000, -48.630
1396.4000, -48.319
1396.8000, -48.072
1397.2000, -47.814
1397.6000, -47.539
1398.0000, -47.357
1398.4000, -47.153
1398.8000, -46.993
1399.2000, -46.870
1399.6000, -46.872
1400.0000, -46.762
1400.4000, -46.684
1400.8000, -46.621
1401.2000, -46.559
1401.6000, -46.503
1402.0000, -46.445
1402.4000, -46.409
1402.8000, -46.407
1403.2000, -46.443
1403.6000, -46.497
1404.0000, -46.645
1404.4000, -46.721
1404.8000, -46.735
1405.2000, -46.724
1405.6000, -46.761
1406.0000, -46.739
1406.4000, -46.721
1406.8000, -46.668
1407.2000, -46.613
1407.6000, -46.544
1408.0000, -46.496
1408.4000, -46.511
1408.8000, -46.415
1409.2000, -46.402
1409.6000, -46.362
1410.0000, -46.377
1410.4000, -46.331
1410.8000, -46.300
1411.2000, -46.304
1411.6000, -46.379
1412.0000, -46.462
1412.4000, -46.559
1412.8000, -46.714
1413.2000, -46.903
1413.6000, -47.055
1414.0000, -47.274
1414.4000, -47.494
1414.8000, -47.750
1415.2000, -47.986
1415.6000, -48.172
1416.0000, -48.437
1416.4000, -48.735
1416.8000, -48.984
1417.2000, -49.313
1417.6000, -49.539
1418.0000, -49.830
1418.4000, -50.176
1418.8000, -50.404
1419.2000, -50.729
1419.6000, -51.009
1420.0000, -51.405
1420.4000, -51.634
1420.8000, -51.956
1421.2000, -52.511
1421.6000, -52.834
1422.0000, -53.383
1422.4000, -53.882
1422.8000, -54.528
1423.2000, -55.048
1423.6000, -55.448
1424.0000, -56.199
1424.4000, -56.830
1424.8000, -57.368
1425.2000, -57.912
1425.6000, -58.718
1426.0000, -59.000
1426.4000, -59.201
1426.8000, -59.793
1427.2000, -59.799
1427.6000, -59.919
1428.0000, -59.314
1428.4000, -58.988
1428.8000, -58.818
1429.2000, -58.132
1429.6000, -57.730
1430.0000, -57.306
1430.4000, -56.741
1430.8000, -56.310
1431.2000, -55.894
1431.6000, -55.399
1432.0000, -54.997
1432.4000, -54.654
1432.8000, -54.243
1433.2000, -53.863
1433.6000, -53.600
1434.0000, -53.238
1434.4000, -52.922
1434.8000, -52.576
1435.2000, -52.324
1435.6000, -52.153
1436.0000, -51.927
1436.4000, -51.799
1436.8000, -51.559
1437.2000, -51.460
1437.6000, -51.398
1438.0000, -51.360
1438.4000, -51.220
1438.8000, -51.273
1439.2000, -51.190
1439.6000, -51.180
1440.0000, -51.201
1440.4000, -51.342
1440.8000, -51.383
1441.2000, -51.418
1441.6000, -51.540
1442.0000, -51.682
1442.4000, -51.901
1442.8000, -51.897
1443.2000, -52.164
1443.6000, -52.335
1444.0000, -52.553
1444.4000, -52.786
1444.8000, -53.060
1445.2000, -53.383
1445.6000, -53.701
1446.0000, -53.954
1446.4000, -54.205
1446.8000, -54.912
1447.2000, -55.263
1447.6000, -55.793
1448.0000, -56.371
1448.4000, -56.880
1448.8000, -57.946
1449.2000, -58.689
1449.6000, -59.306
1450.0000, -59.890
1450.4000, -61.568
1450.8000, -60.858
1451.2000, -64.089
1451.6000, -64.541
1452.0000, -67.187
1452.4000, -66.608
1452.8000, -65.252
1453.2000, -63.616
1453.6000, -63.162
1454.0000, -62.000
1454.4000, -60.702
1454.8000, -59.253
1455.2000, -58.377
1455.6000, -57.172
1456.0000, -56.550
1456.4000, -55.455
1456.8000, -54.831
1457.2000, -54.110
1457.6000, -53.645
1458.0000, -53.044
1458.4000, -52.591
1458.8000, -52.200
1459.2000, -51.628
1459.6000, -51.232
1460.0000, -50.888
1460.4000, -50.519
1460.8000, -50.236
1461.2000, -49.964
1461.6000, -49.673
1462.0000, -49.466
1462.4000, -49.207
1462.8000, -49.015
1463.2000, -48.790
1463.6000, -48.619
1464.0000, -48.419
1464.4000, -48.295
1464.8000, -48.089
1465.2000, -47.967
1465.6000, -47.821
1466.0000, -47.704
1466.4000, -47.559
1466.8000, -47.473
1467.2000, -47.371
1467.6000, -47.308
1468.0000, -47.214
1468.4000, -47.139
1468.8000, -47.075
1469.2000, -47.071
1469.6000, -47.037
1470.0000, -47.028
1470.4000, -47.016
1470.8000, -47.014
1471.2000, -47.039
1471.6000, -47.076
1472.0000, -47.092
1472.4000, -47.106
1472.8000, -47.174
1473.2000, -47.198
1473.6000, -47.242
1474.0000, -47.330
1474.4000, -47.366
1474.8000, -47.477
1475.2000, -47.544
1475.6000, -47.626
1476.0000, -47.774
1476.4000, -47.857
1476.8000, -47.984
1477.2000, -48.124
1477.6000, -48.200
1478.0000, -48.302
1478.4000, -48.390
1478.8000, -48.467
1479.2000, -48.531
1479.6000, -48.603
1480.0000, -48.667
1480.4000, -48.690
1480.8000, -48.747
1481.2000, -48.734
1481.6000, -48.707
1482.0000, -48.722
1482.4000, -48.672
1482.8000, -48.621
1483.2000, -48.505
1483.6000, -48.432
1484.0000, -48.317
1484.4000, -48.234
1484.8000, -48.087
1485.2000, -47.993
1485.6000, -47.870
1486.0000, -47.712
1486.4000, -47.508
1486.8000, -47.392
1487.2000, -47.177
1487.6000, -46.979
1488.0000, -46.768
1488.4000, -46.558
1488.8000, -46.343
1489.2000, -46.081
1489.6000, -45.853
1490.0000, -45.615
1490.4000, -45.373
1490.8000, -45.135
1491.2000, -44.883
1491.6000, -44.667
1492.0000, -44.436
1492.4000, -44.229
1492.8000, -44.016
1493.2000, -43.831
1493.6000, -43.645
1494.0000, -43.454
1494.4000, -43.297
1494.8000, -43.126
1495.2000, -42.963
1495.6000, -42.814
1496.0000, -42.671
1496.4000, -42.537
1496.8000, -42.415
1497.2000, -42.284
1497.6000, -42.159
1498.0000, -42.043
1498.4000, -41.937
1498.8000, -41.834
1499.2000, -41.762
1499.6000, -41.678
1500.0000, -41.629
1500.4000, -41.595
1500.8000, -41.569
1501.2000, -41.559
1501.6000, -41.564
1502.0000, -41.597
1502.4000, -41.651
1502.8000, -41.708
1503.2000, -41.794
1503.6000, -41.896
1504.0000, -42.004
1504.4000, -42.131
1504.8000, -42.262
1505.2000, -42.401
1505.6000, -42.556
1506.0000, -42.719
1506.4000, -42.885
1506.8000, -43.052
1507.2000, -43.249
1507.6000, -43.450
1508.0000, -43.653
1508.4000, -43.871
1508.8000, -44.100
1509.2000, -44.323
1509.6000, -44.574
1510.0000, -44.825
1510.4000, -45.060
1510.8000, -45.289
1511.2000, -45.522
1511.6000, -45.737
1512.0000, -45.895
1512.4000, -46.012
1512.8000, -46.101
1513.2000, -46.205
1513.6000, -46.215
1514.0000, -46.188
1514.4000, -46.161
1514.8000, -46.020
1515.2000, -45.868
1515.6000, -45.701
1516.0000, -45.531
1516.4000, -45.329
1516.8000, -45.103
1517.2000, -44.881
1517.6000, -44.655
1518.0000, -44.440
1518.4000, -44.251
1518.8000, -44.053
1519.2000, -43.868
1519.6000, -43.722
1520.0000, -43.573
1520.4000, -43.439
1520.8000, -43.328
1521.2000, -43.229
1521.6000, -43.150
1522.0000, -43.105
1522.4000, -43.086
1522.8000, -43.103
1523.2000, -43.138
1523.6000, -43.193
1524.0000, -43.277
1524.4000, -43.399
1524.8000, -43.527
1525.2000, -43.696
1525.6000, -43.891
1526.0000, -44.099
1526.4000, -44.320
1526.8000, -44.556
1527.2000, -44.805
1527.6000, -45.057
1528.0000, -45.248
1528.4000, -45.439
1528.8000, -45.527
1529.2000, -45.639
1529.6000, -45.584
1530.0000, -45.485
1530.4000, -45.254
1530.8000, -44.951
1531.2000, -44.544
1531.6000, -44.066
1532.0000, -43.517
1532.4000, -42.946
1532.8000, -42.352
1533.2000, -41.757
1533.6000, -41.177
1534.0000, -40.620
1534.4000, -40.096
1534.8000, -39.598
1535.2000, -39.123
1535.6000, -38.682
1536.0000, -38.267
1536.4000, -37.882
1536.8000, -37.529
1537.2000, -37.202
1537.6000, -36.888
1538.0000, -36.597
1538.4000, -36.316
1538.8000, -36.053
1539.2000, -35.804
1539.6000, -35.569
1540.0000, -35.354
1540.4000, -35.153
1540.8000, -34.966
1541.2000, -34.795
1541.6000, -34.634
1542.0000, -34.484
1542.4000, -34.348
1542.8000, -34.229
1543.2000, -34.124
1543.6000, -34.045
1544.0000, -33.986
1544.4000, -33.946
1544.8000, -33.930
1545.2000, -33.940
1545.6000, -33.968
1546.0000, -34.010
1546.4000, -34.071
1546.8000, -34.157
1547.2000, -34.265
1547.6000, -34.391
1548.0000, -34.535
1548.4000, -34.693
1548.8000, -34.866
1549.2000, -35.045
1549.6000, -35.221
1550.0000, -35.401
1550.4000, -35.572
1550.8000, -35.735
1551.2000, -35.881
1551.6000, -36.011
1552.0000, -36.121
1552.4000, -36.204
1552.8000, -36.255
1553.2000, -36.274
1553.6000, -36.248
1554.0000, -36.184
1554.4000, -36.093
1554.8000, -35.973
1555.2000, -35.822
1555.6000, -35.668
1556.0000, -35.509
1556.4000, -35.345
1556.8000, -35.197
1557.2000, -35.068
1557.6000, -34.955
1558.0000, -34.867
1558.4000, -34.803
1558.8000, -34.761
1559.2000, -34.746
1559.6000, -34.752
1560.0000, -34.779
1560.4000, -34.836
1560.8000, -34.919
1561.2000, -35.020
1561.6000, -35.125
1562.0000, -35.221
1562.4000, -35.322
1562.8000, -35.423
1563.2000, -35.524
1563.6000, -35.654
1564.0000, -35.809
1564.4000, -36.002
1564.8000, -36.217
1565.2000, -36.452
1565.6000, -36.704
1566.0000, -36.956
1566.4000, -37.215
1566.8000, -37.507
1567.2000, -37.836
1567.6000, -38.229
1568.0000, -38.687
1568.4000, -39.215
1568.8000, -39.812
1569.2000, -40.446
1569.6000, -41.126
1570.0000, -41.835
1570.4000, -42.573
1570.8000, -43.390
1571.2000, -44.248
1571.6000, -45.225
1572.0000, -46.295
1572.4000, -47.407
1572.8000, -48.587
1573.2000, -49.685
1573.6000, -50.522
1574.0000, -50.709
1574.4000, -50.229
1574.8000, -49.087
1575.2000, -47.639
1575.6000, -46.140
1576.0000, -44.718
1576.4000, -43.409
1576.8000, -42.204
1577.2000, -41.115
1577.6000, -40.117
1578.0000, -39.214
1578.4000, -38.392
1578.8000, -37.639
1579.2000, -36.950
1579.6000, -36.306
1580.0000, -35.723
1580.4000, -35.191
1580.8000, -34.695
1581.2000, -34.238
1581.6000, -33.812
1582.0000, -33.422
1582.4000, -33.059
1582.8000, -32.722
1583.2000, -32.401
1583.6000, -32.093
1584.0000, -31.814
1584.4000, -31.558
1584.8000, -31.322
1585.2000, -31.108
1585.6000, -30.921
1586.0000, -30.756
1586.4000, -30.607
1586.8000, -30.488
1587.2000, -30.388
1587.6000, -30.315
1588.0000, -30.265
1588.4000, -30.245
1588.8000, -30.252
1589.2000, -30.278
1589.6000, -30.323
1590.0000, -30.393
1590.4000, -30.484
1590.8000, -30.602
1591.2000, -30.736
1591.6000, -30.899
1592.0000, -31.080
1592.4000, -31.273
1592.8000, -31.480
1593.2000, -31.689
1593.6000, -31.900
1594.0000, -32.112
1594.4000, -32.314
1594.8000, -32.520
1595.2000, -32.714
1595.6000, -32.893
1596.0000, -33.057
1596.4000, -33.202
1596.8000, -33.328
1597.2000, -33.429
1597.6000, -33.517
1598.0000, -33.596
1598.4000, -33.661
1598.8000, -33.717
1599.2000, -33.768
1599.6000, -33.818
1600.0000, -33.868
1600.4000, -33.924
1600.8000, -33.996
1601.2000, -34.085
1601.6000, -34.195
1602.0000, -34.326
1602.4000, -34.473
1602.8000, -34.634
1603.2000, -34.813
1603.6000, -35.001
1604.0000, -35.199
1604.4000, -35.401
1604.8000, -35.612
1605.2000, -35.834
1605.6000, -36.059
1606.0000, -36.272
1606.4000, -36.454
1606.8000, -36.610
1607.2000, -36.728
1607.6000, -36.803
1608.0000, -36.835
1608.4000, -36.838
1608.8000, -36.814
1609.2000, -36.775
1609.6000, -36.727
1610.0000, -36.675
1610.4000, -36.628
1610.8000, -36.580
1611.2000, -36.559
1611.6000, -36.555
1612.0000, -36.574
1612.4000, -36.623
1612.8000, -36.704
1613.2000, -36.821
1613.6000, -36.974
1614.0000, -37.163
1614.4000, -37.388
1614.8000, -37.653
1615.2000, -37.962
1615.6000, -38.318
1616.0000, -38.729
1616.4000, -39.188
1616.8000, -39.694
1617.2000, -40.252
1617.6000, -40.840
1618.0000, -41.446
1618.4000, -42.071
1618.8000, -42.689
1619.2000, -43.282
1619.6000, -43.811
1620.0000, -44.281
1620.4000, -44.641
1620.8000, -44.888
1621.2000, -44.987
1621.6000, -44.957
1622.0000, -44.827
1622.4000, -44.563
1622.8000, -44.275
1623.2000, -43.924
1623.6000, -43.573
1624.0000, -43.209
1624.4000, -42.856
1624.8000, -42.530
1625.2000, -42.195
1625.6000, -41.886
1626.0000, -41.600
1626.4000, -41.315
1626.8000, -41.040
1627.2000, -40.788
1627.6000, -40.541
1628.0000, -40.301
1628.4000, -40.076
1628.8000, -39.847
1629.2000, -39.627
1629.6000, -39.412
1630.0000, -39.197
1630.4000, -38.996
1630.8000, -38.804
1631.2000, -38.624
1631.6000, -38.461
1632.0000, -38.324
1632.4000, -38.195
1632.8000, -38.091
1633.2000, -38.003
1633.6000, -37.935
1634.0000, -37.896
1634.4000, -37.880
1634.8000, -37.887
1635.2000, -37.921
1635.6000, -37.979
1636.0000, -38.062
1636.4000, -38.169
1636.8000, -38.289
1637.2000, -38.442
1637.6000, -38.608
1638.0000, -38.803
1638.4000, -39.022
1638.8000, -39.257
1639.2000, -39.508
1639.6000, -39.765
1640.0000, -40.032
1640.4000, -40.304
1640.8000, -40.581
1641.2000, -40.865
1641.6000, -41.148
1642.0000, -41.427
1642.4000, -41.687
1642.8000, -41.939
1643.2000, -42.171
1643.6000, -42.369
1644.0000, -42.548
1644.4000, -42.690
1644.8000, -42.806
1645.2000, -42.887
1645.6000, -42.954
1646.0000, -42.994
1646.4000, -43.005
1646.8000, -43.008
1647.2000, -42.994
1647.6000, -42.961
1648.0000, -42.933
1648.4000, -42.911
1648.8000, -42.877
1649.2000, -42.862
1649.6000, -42.859
1650.0000, -42.863
1650.4000, -42.893
1650.8000, -42.941
1651.2000, -42.987
1651.6000, -43.070
1652.0000, -43.141
1652.4000, -43.241
1652.8000, -43.328
1653.2000, -43.435
1653.6000, -43.547
1654.0000, -43.650
1654.4000, -43.748
1654.8000, -43.856
1655.2000, -43.940
1655.6000, -44.029
1656.0000, -44.098
1656.4000, -44.176
1656.8000, -44.236
1657.2000, -44.288
1657.6000, -44.355
1658.0000, -44.402
1658.4000, -44.467
1658.8000, -44.535
1659.2000, -44.611
1659.6000, -44.707
1660.0000, -44.816
1660.4000, -44.941
1660.8000, -45.093
1661.2000, -45.297
1661.6000, -45.496
1662.0000, -45.725
1662.4000, -45.976
1662.8000, -46.226
1663.2000, -46.520
1663.6000, -46.787
1664.0000, -47.061
1664.4000, -47.316
1664.8000, -47.584
1665.2000, -47.786
1665.6000, -48.047
1666.0000, -48.280
1666.4000, -48.492
1666.8000, -48.742
1667.2000, -48.983
1667.6000, -49.163
1668.0000, -49.464
1668.4000, -49.692
1668.8000, -49.921
1669.2000, -50.118
1669.6000, -50.301
1670.0000, -50.500
1670.4000, -50.621
1670.8000, -50.629
1671.2000, -50.724
1671.6000, -50.736
1672.0000, -50.696
1672.4000, -50.662
1672.8000, -50.638
1673.2000, -50.558
1673.6000, -50.580
1674.0000, -50.541
1674.4000, -50.525
1674.8000, -50.576
1675.2000, -50.542
1675.6000, -50.420
1676.0000, -50.382
1676.4000, -50.264
1676.8000, -50.133
1677.2000, -49.927
1677.6000, -49.756
1678.0000, -49.544
1678.4000, -49.300
1678.8000, -49.083
1679.2000, -48.838
1679.6000, -48.661
1680.0000, -48.441
1680.4000, -48.271
1680.8000, -48.094
1681.2000, -47.911
1681.6000, -47.794
1682.0000, -47.619
1682.4000, -47.475
1682.8000, -47.325
1683.2000, -47.146
1683.6000, -47.006
1684.0000, -46.817
1684.4000, -46.675
1684.8000, -46.490
1685.2000, -46.341
1685.6000, -46.165
1686.0000, -45.981
1686.4000, -45.810
1686.8000, -45.651
1687.2000, -45.490
1687.6000, -45.306
1688.0000, -45.135
1688.4000, -44.963
1688.8000, -44.799
1689.2000, -44.624
1689.6000, -44.438
1690.0000, -44.278
1690.4000, -44.119
1690.8000, -43.950
1691.2000, -43.798
1691.6000, -43.653
1692.0000, -43.524
1692.4000, -43.382
1692.8000, -43.261
1693.2000, -43.109
1693.6000, -42.987
1694.0000, -42.856
1694.4000, -42.718
1694.8000, -42.580
1695.2000, -42.450
1695.6000, -42.315
1696.0000, -42.187
1696.4000, -42.051
1696.8000, -41.922
1697.2000, -41.801
1697.6000, -41.681
1698.0000, -41.573
1698.4000, -41.462
1698.8000, -41.365
1699.2000, -41.262
1699.6000, -41.174
1700.0000, -41.091
1700.4000, -41.003
1700.8000, -40.930
1701.2000, -40.862
1701.6000, -40.795
1702.0000, -40.739
1702.4000, -40.691
1702.8000, -40.640
1703.2000, -40.587
1703.6000, -40.544
1704.0000, -40.501
1704.4000, -40.458
1704.8000, -40.415
1705.2000, -40.375
1705.6000, -40.344
1706.0000, -40.305
1706.4000, -40.277
1706.8000, -40.241
1707.2000, -40.222
1707.6000, -40.201
1708.0000, -40.191
1708.4000, -40.177
1708.8000, -40.165
1709.2000, -40.163
1709.6000, -40.161
1710.0000, -40.171
1710.4000, -40.176
1710.8000, -40.193
1711.2000, -40.215
1711.6000, -40.229
1712.0000, -40.254
1712.4000, -40.271
1712.8000, -40.310
1713.2000, -40.330
1713.6000, -40.361
1714.0000, -40.398
1714.4000, -40.427
1714.8000, -40.472
1715.2000, -40.507
1715.6000, -40.557
1716.0000, -40.604
1716.4000, -40.648
1716.8000, -40.696
1717.2000, -40.747
1717.6000, -40.795
1718.0000, -40.845
1718.4000, -40.901
1718.8000, -40.963
1719.2000, -41.016
1719.6000, -41.084
1720.0000, -41.133
1720.4000, -41.191
1720.8000, -41.252
1721.2000, -41.305
1721.6000, -41.361
1722.0000, -41.417
1722.4000, -41.482
1722.8000, -41.545
1723.2000, -41.604
1723.6000, -41.679
1724.0000, -41.744
1724.4000, -41.817
1724.8000, -41.880
1725.2000, -41.961
1725.6000, -42.030
1726.0000, -42.112
1726.4000, -42.191
1726.8000, -42.272
1727.2000, -42.352
1727.6000, -42.423
1728.0000, -42.510
1728.4000, -42.588
1728.8000, -42.671
1729.2000, -42.765
1729.6000, -42.849
1730.0000, -42.951
1730.4000, -43.039
1730.8000, -43.132
1731.2000, -43.231
1731.6000, -43.329
1732.0000, -43.436
1732.4000, -43.542
1732.8000, -43.644
1733.2000, -43.761
1733.6000, -43.877
1734.0000, -44.008
1734.4000, -44.112
1734.8000, -44.238
1735.2000, -44.346
1735.6000, -44.471
1736.0000, -44.593
1736.4000, -44.721
1736.8000, -44.845
1737.2000, -44.983
1737.6000, -45.124
1738.0000, -45.252
1738.4000, -45.394
1738.8000, -45.544
1739.2000, -45.706
1739.6000, -45.829
1740.0000, -45.997
1740.4000, -46.152
1740.8000, -46.302
1741.2000, -46.483
1741.6000, -46.662
1742.0000, -46.807
1742.4000, -46.991
1742.8000, -47.169
1743.2000, -47.358
1743.6000, -47.550
1744.0000, -47.731
1744.4000, -47.954
1744.8000, -48.166
1745.2000, -48.393
1745.6000, -48.623
1746.0000, -48.825
1746.4000, -49.061
1746.8000, -49.320
1747.2000, -49.558
1747.6000, -49.813
1748.0000, -50.044
1748.4000, -50.365
1748.8000, -50.616
1749.2000, -50.867
1749.6000, -51.206
1750.0000, -51.497
1750.4000, -51.832
1750.8000, -52.130
1751.2000, -52.346
1751.6000, -52.737
1752.0000, -53.040
1752.4000, -53.376
1752.8000, -53.650
1753.2000, -53.967
1753.6000, -54.377
1754.0000, -54.562
1754.4000, -54.930
1754.8000, -55.370
1755.2000, -55.488
1755.6000, -55.743
1756.0000, -56.013
1756.4000, -56.216
1756.8000, -56.267
1757.2000, -56.338
1757.6000, -56.464
1758.0000, -56.290
1758.4000, -56.217
1758.8000, -56.184
1759.2000, -55.787
1759.6000, -55.776
1760.0000, -55.511
1760.4000, -55.295
1760.8000, -54.959
1761.2000, -54.641
1761.6000, -54.118
1762.0000, -53.859
1762.4000, -53.502
1762.8000, -53.099
1763.2000, -52.775
1763.6000, -52.387
1764.0000, -52.070
1764.4000, -51.673
1764.8000, -51.355
1765.2000, -51.019
1765.6000, -50.655
1766.0000, -50.288
1766.4000, -49.968
1766.8000, -49.687
1767.2000, -49.315
1767.6000, -49.054
1768.0000, -48.754
1768.4000, -48.458
1768.8000, -48.209
1769.2000, -47.927
1769.6000, -47.657
1770.0000, -47.392
1770.4000, -47.164
1770.8000, -46.913
1771.2000, -46.673
1771.6000, -46.455
1772.0000, -46.234
1772.4000, -46.023
1772.8000, -45.823
1773.2000, -45.609
1773.6000, -45.407
1774.0000, -45.214
1774.4000, -45.005
1774.8000, -44.809
1775.2000, -44.618
1775.6000, -44.432
1776.0000, -44.248
1776.4000, -44.056
1776.8000, -43.875
1777.2000, -43.680
1777.6000, -43.505
1778.0000, -43.339
1778.4000, -43.154
1778.8000, -42.992
1779.2000, -42.819
1779.6000, -42.653
1780.0000, -42.508
1780.4000, -42.341
1780.8000, -42.197
1781.2000, -42.052
1781.6000, -41.913
1782.0000, -41.776
1782.4000, -41.642
1782.8000, -41.526
1783.2000, -41.405
1783.6000, -41.284
1784.0000, -41.180
1784.4000, -41.064
1784.8000, -40.961
1785.2000, -40.860
1785.6000, -40.763
1786.0000, -40.663
1786.4000, -40.561
1786.8000, -40.471
1787.2000, -40.378
1787.6000, -40.286
1788.0000, -40.203
1788.4000, -40.108
1788.8000, -40.025
1789.2000, -39.934
1789.6000, -39.846
1790.0000, -39.765
1790.4000, -39.672
1790.8000, -39.588
1791.2000, -39.505
1791.6000, -39.423
1792.0000, -39.344
1792.4000, -39.263
1792.8000, -39.192
1793.2000, -39.124
1793.6000, -39.044
1794.0000, -38.978
1794.4000, -38.905
1794.8000, -38.839
1795.2000, -38.764
1795.6000, -38.689
1796.0000, -38.632
1796.4000, -38.563
1796.8000, -38.495
1797.2000, -38.431
1797.6000, -38.357
1798.0000, -38.296
1798.4000, -38.223
1798.8000, -38.166
1799.2000, -38.114
1799.6000, -38.056
1800.0000, -38.019
1800.4000, -37.971
1800.8000, -37.917
1801.2000, -37.871
1801.6000, -37.815
1802.0000, -37.766
1802.4000, -37.703
1802.8000, -37.646
1803.2000, -37.592
1803.6000, -37.535
1804.0000, -37.480
1804.4000, -37.434
1804.8000, -37.394
1805.2000, -37.380
1805.6000, -37.354
1806.0000, -37.319
1806.4000, -37.293
1806.8000, -37.257
1807.2000, -37.217
1807.6000, -37.160
1808.0000, -37.130
1808.4000, -37.099
1808.8000, -37.054
1809.2000, -37.016
1809.6000, -36.993
1810.0000, -36.980
1810.4000, -36.959
1810.8000, -36.926
1811.2000, -36.901
1811.6000, -36.868
1812.0000, -36.851
1812.4000, -36.788
1812.8000, -36.746
1813.2000, -36.696
1813.6000, -36.651
1814.0000, -36.592
1814.4000, -36.555
1814.8000, -36.590
1815.2000, -36.561
1815.6000, -36.539
1816.0000, -36.519
1816.4000, -36.478
1816.8000, -36.386
1817.2000, -36.312
1817.6000, -36.295
1818.0000, -36.271
1818.4000, -36.216
1818.8000, -36.193
1819.2000, -36.199
1819.6000, -36.301
1820.0000, -36.290
1820.4000, -36.292
1820.8000, -36.311
1821.2000, -36.357
1821.6000, -36.254
1822.0000, -36.153
1822.4000, -36.126
1822.8000, -36.059
1823.2000, -36.006
1823.6000, -35.950
1824.0000, -35.924
1824.4000, -35.907
1824.8000, -35.902
1825.2000, -35.990
1825.6000, -36.152
1826.0000, -36.149
1826.4000, -36.141
1826.8000, -36.124
1827.2000, -36.125
1827.6000, -35.941
1828.0000, -35.948
1828.4000, -35.961
1828.8000, -35.956
1829.2000, -36.023
1829.6000, -35.992
1830.0000, -35.978
1830.4000, -36.054
1830.8000, -36.051
1831.2000, -36.005
1831.6000, -35.977
1832.0000, -35.999
1832.4000, -35.879
1832.8000, -35.798
1833.2000, -35.783
1833.6000, -35.772
1834.0000, -35.769
1834.4000, -35.821
1834.8000, -35.816
1835.2000, -35.899
1835.6000, -36.038
1836.0000, -36.011
1836.4000, -35.905
1836.8000, -36.004
1837.2000, -36.083
1837.6000, -35.881
1838.0000, -35.817
1838.4000, -35.798
1838.8000, -35.801
1839.2000, -35.776
1839.6000, -35.777
1840.0000, -35.772
1840.4000, -35.804
1840.8000, -35.896
1841.2000, -35.890
1841.6000, -35.884
1842.0000, -35.877
1842.4000, -35.879
1842.8000, -35.801
1843.2000, -35.649
1843.6000, -35.539
1844.0000, -35.500
1844.4000, -35.493
1844.8000, -35.483
1845.2000, -35.477
1845.6000, -35.499
1846.0000, -35.659
1846.4000, -35.839
1846.8000, -35.883
1847.2000, -36.057
1847.6000, -36.167
1848.0000, -36.173
1848.4000, -35.917
1848.8000, -35.876
1849.2000, -35.778
1849.6000, -35.701
1850.0000, -35.617
1850.4000, -35.605
1850.8000, -35.593
1851.2000, -35.590
1851.6000, -35.562
1852.0000, -35.617
1852.4000, -35.665
1852.8000, -35.727
1853.2000, -35.934
1853.6000, -35.952
1854.0000, -35.937
1854.4000, -35.837
1854.8000, -35.832
1855.2000, -35.670
1855.6000, -35.694
1856.0000, -35.821
1856.4000, -35.850
1856.8000, -35.886
1857.2000, -35.894
1857.6000, -35.880
1858.0000, -35.714
1858.4000, -35.703
1858.8000, -35.864
1859.2000, -35.948
1859.6000, -36.032
1860.0000, -36.110
1860.4000, -36.123
1860.8000, -36.037
1861.2000, -35.861
1861.6000, -35.825
1862.0000, -35.753
1862.4000, -35.749
1862.8000, -35.760
1863.2000, -35.826
1863.6000, -35.891
1864.0000, -35.916
1864.4000, -35.926
1864.8000, -35.943
1865.2000, -35.932
1865.6000, -35.877
1866.0000, -35.870
1866.4000, -35.922
1866.8000, -36.084
1867.2000, -36.280
1867.6000, -36.370
1868.0000, -36.404
1868.4000, -36.446
1868.8000, -36.456
1869.2000, -36.335
1869.6000, -36.250
1870.0000, -36.522
1870.4000, -36.687
1870.8000, -36.675
1871.2000, -36.658
1871.6000, -36.651
1872.0000, -36.681
1872.4000, -36.669
1872.8000, -36.686
1873.2000, -36.765
1873.6000, -36.784
1874.0000, -36.774
1874.4000, -36.597
1874.8000, -36.554
1875.2000, -36.480
1875.6000, -36.483
1876.0000, -36.614
1876.4000, -36.734
1876.8000, -36.667
1877.2000, -36.683
1877.6000, -36.705
1878.0000, -36.688
1878.4000, -36.522
1878.8000, -36.518
1879.2000, -36.544
1879.6000, -36.568
1880.0000, -36.621
1880.4000, -36.668
1880.8000, -36.694
1881.2000, -36.719
1881.6000, -36.734
1882.0000, -36.744
1882.4000, -36.735
1882.8000, -36.764
1883.2000, -36.922
1883.6000, -36.985
1884.0000, -37.021
1884.4000, -37.049
1884.8000, -37.093
1885.2000, -37.037
1885.6000, -36.965
1886.0000, -37.035
1886.4000, -37.055
1886.8000, -37.069
1887.2000, -37.082
1887.6000, -37.103
1888.0000, -37.094
1888.4000, -37.091
1888.8000, -37.122
1889.2000, -37.254
1889.6000, -37.372
1890.0000, -37.401
1890.4000, -37.429
1890.8000, -37.455
1891.2000, -37.506
1891.6000, -37.418
1892.0000, -37.449
1892.4000, -37.484
1892.8000, -37.554
1893.2000, -37.597
1893.6000, -37.558
1894.0000, -37.594
1894.4000, -37.628
1894.8000, -37.656
1895.2000, -37.642
1895.6000, -37.679
1896.0000, -37.723
1896.4000, -37.767
1896.8000, -37.867
1897.2000, -37.957
1897.6000, -38.002
1898.0000, -38.087
1898.4000, -38.163
1898.8000, -38.393
1899.2000, -38.390
1899.6000, -38.515
1900.0000, -38.576
1900.4000, -38.571
1900.8000, -38.462
1901.2000, -38.366
1901.6000, -38.353
1902.0000, -38.428
1902.4000, -38.530
1902.8000, -38.552
1903.2000, -38.571
1903.6000, -38.598
1904.0000, -38.565
1904.4000, -38.588
1904.8000, -38.713
1905.2000, -38.767
1905.6000, -38.837
1906.0000, -39.007
1906.4000, -38.976
1906.8000, -38.812
1907.2000, -38.795
1907.6000, -38.808
1908.0000, -38.729
1908.4000, -38.683
1908.8000, -38.722
1909.2000, -38.761
1909.6000, -38.847
1910.0000, -38.896
1910.4000, -38.952
1910.8000, -39.089
1911.2000, -39.164
1911.6000, -39.202
1912.0000, -39.225
1912.4000, -39.322
1912.8000, -39.465
1913.2000, -39.518
1913.6000, -39.595
1914.0000, -39.659
1914.4000, -39.684
1914.8000, -39.594
1915.2000, -39.571
1915.6000, -39.627
1916.0000, -39.667
1916.4000, -39.700
1916.8000, -39.735
1917.2000, -39.746
1917.6000, -39.728
1918.0000, -39.735
1918.4000, -39.754
1918.8000, -39.875
1919.2000, -39.974
1919.6000, -40.099
1920.0000, -40.315
1920.4000, -40.375
1920.8000, -40.355
1921.2000, -40.254
1921.6000, -40.231
1922.0000, -40.029
1922.4000, -39.971
1922.8000, -39.997
1923.2000, -40.094
1923.6000, -40.161
1924.0000, -40.205
1924.4000, -40.235
1924.8000, -40.272
1925.2000, -40.262
1925.6000, -40.224
1926.0000, -40.281
1926.4000, -40.362
1926.8000, -40.409
1927.2000, -40.455
1927.6000, -40.574
1928.0000, -40.667
1928.4000, -40.667
1928.8000, -40.707
1929.2000, -40.765
1929.6000, -40.802
1930.0000, -40.758
1930.4000, -40.801
1930.8000, -40.848
1931.2000, -40.888
1931.6000, -40.892
1932.0000, -40.926
1932.4000, -40.945
1932.8000, -40.986
1933.2000, -41.051
1933.6000, -41.094
1934.0000, -41.122
1934.4000, -41.149
1934.8000, -41.189
1935.2000, -41.178
1935.6000, -41.238
1936.0000, -41.300
1936.4000, -41.320
1936.8000, -41.358
1937.2000, -41.396
1937.6000, -41.394
1938.0000, -41.393
1938.4000, -41.458
1938.8000, -41.523
1939.2000, -41.554
1939.6000, -41.591
1940.0000, -41.637
1940.4000, -41.654
1940.8000, -41.690
1941.2000, -41.711
1941.6000, -41.759
1942.0000, -41.801
1942.4000, -41.844
1942.8000, -41.885
1943.2000, -41.929
1943.6000, -41.970
1944.0000, -42.061
1944.4000, -42.113
1944.8000, -42.156
1945.2000, -42.205
1945.6000, -42.256
1946.0000, -42.281
1946.4000, -42.322
1946.8000, -42.382
1947.2000, -42.429
1947.6000, -42.483
1948.0000, -42.523
1948.4000, -42.566
1948.8000, -42.604
1949.2000, -42.647
1949.6000, -42.679
1950.0000, -42.718
1950.4000, -42.759
1950.8000, -42.796
1951.2000, -42.825
1951.6000, -42.865
1952.0000, -42.892
1952.4000, -42.953
1952.8000, -42.992
1953.2000, -43.031
1953.6000, -43.077
1954.0000, -43.114
1954.4000, -43.140
1954.8000, -43.167
1955.2000, -43.207
1955.6000, -43.243
1956.0000, -43.280
1956.4000, -43.327
1956.8000, -43.361
1957.2000, -43.405
1957.6000, -43.451
1958.0000, -43.488
1958.4000, -43.538
1958.8000, -43.587
1959.2000, -43.634
1959.6000, -43.683
1960.0000, -43.729
1960.4000, -43.773
1960.8000, -43.817
1961.2000, -43.866
1961.6000, -43.905
1962.0000, -43.945
1962.4000, -43.998
1962.8000, -44.040
1963.2000, -44.080
1963.6000, -44.132
1964.0000, -44.162
1964.4000, -44.199
1964.8000, -44.242
1965.2000, -44.277
1965.6000, -44.320
1966.0000, -44.361
1966.4000, -44.386
1966.8000, -44.434
1967.2000, -44.480
1967.6000, -44.509
1968.0000, -44.561
1968.4000, -44.590
1968.8000, -44.630
1969.2000, -44.667
1969.6000, -44.703
1970.0000, -44.744
1970.4000, -44.781
1970.8000, -44.825
1971.2000, -44.857
1971.6000, -44.895
1972.0000, -44.928
1972.4000, -44.981
1972.8000, -45.006
1973.2000, -45.049
1973.6000, -45.086
1974.0000, -45.127
1974.4000, -45.165
1974.8000, -45.212
1975.2000, -45.244
1975.6000, -45.279
1976.0000, -45.322
1976.4000, -45.352
1976.8000, -45.397
1977.2000, -45.433
1977.6000, -45.468
1978.0000, -45.495
1978.4000, -45.523
1978.8000, -45.563
1979.2000, -45.599
1979.6000, -45.634
1980.0000, -45.669
1980.4000, -45.687
1980.8000, -45.726
1981.2000, -45.746
1981.6000, -45.784
1982.0000, -45.813
1982.4000, -45.839
1982.8000, -45.860
1983.2000, -45.898
1983.6000, -45.915
1984.0000, -45.948
1984.4000, -45.964
1984.8000, -45.992
1985.2000, -46.033
1985.6000, -46.045
1986.0000, -46.088
1986.4000, -46.125
1986.8000, -46.165
1987.2000, -46.183
1987.6000, -46.212
1988.0000, -46.250
1988.4000, -46.285
1988.8000, -46.310
1989.2000, -46.340
1989.6000, -46.378
1990.0000, -46.398
1990.4000, -46.443
1990.8000, -46.491
1991.2000, -46.513
1991.6000, -46.556
1992.0000, -46.585
1992.4000, -46.596
1992.8000, -46.633
1993.2000, -46.671
1993.6000, -46.675
1994.0000, -46.709
1994.4000, -46.735
1994.8000, -46.752
1995.2000, -46.775
1995.6000, -46.805
1996.0000, -46.822
1996.4000, -46.831
1996.8000, -46.850
1997.2000, -46.901
1997.6000, -46.900
1998.0000, -46.923
1998.4000, -46.962
1998.8000, -46.986
1999.2000, -46.993
1999.6000, -47.048
2000.0000, -47.048
2000.4000, -47.064
2000.8000, -47.110
2001.2000, -47.139
2001.6000, -47.155
2002.0000, -47.182
2002.4000, -47.207
2002.8000, -47.220
2003.2000, -47.262
2003.6000, -47.299
2004.0000, -47.299
2004.4000, -47.327
2004.8000, -47.348
2005.2000, -47.375
2005.6000, -47.406
2006.0000, -47.435
2006.4000, -47.463
2006.8000, -47.479
2007.2000, -47.504
2007.6000, -47.526
2008.0000, -47.561
2008.4000, -47.571
2008.8000, -47.587
2009.2000, -47.598
2009.6000, -47.627
2010.0000, -47.637
2010.4000, -47.656
2010.8000, -47.687
2011.2000, -47.719
2011.6000, -47.714
2012.0000, -47.726
2012.4000, -47.751
2012.8000, -47.742
2013.2000, -47.744
2013.6000, -47.783
2014.0000, -47.795
2014.4000, -47.801
2014.8000, -47.826
2015.2000, -47.811
2015.6000, -47.852
2016.0000, -47.871
2016.4000, -47.905
2016.8000, -47.882
2017.2000, -47.909
2017.6000, -47.948
2018.0000, -47.944
2018.4000, -47.969
2018.8000, -47.992
2019.2000, -47.998
2019.6000, -48.013
2020.0000, -48.061
2020.4000, -48.064
2020.8000, -48.110
2021.2000, -48.134
2021.6000, -48.134
2022.0000, -48.167
2022.4000, -48.178
2022.8000, -48.233
2023.2000, -48.236
2023.6000, -48.275
2024.0000, -48.317
2024.4000, -48.349
2024.8000, -48.368
2025.2000, -48.382
2025.6000, -48.437
2026.0000, -48.463
2026.4000, -48.499
2026.8000, -48.544
2027.2000, -48.536
2027.6000, -48.560
2028.0000, -48.615
2028.4000, -48.619
2028.8000, -48.651
2029.2000, -48.675
2029.6000, -48.705
2030.0000, -48.731
2030.4000, -48.768
2030.8000, -48.799
2031.2000, -48.805
2031.6000, -48.837
2032.0000, -48.847
2032.4000, -48.884
2032.8000, -48.919
2033.2000, -48.939
2033.6000, -48.924
2034.0000, -48.982
2034.4000, -49.030
2034.8000, -49.034
2035.2000, -49.088
2035.6000, -49.125
2036.0000, -49.128
2036.4000, -49.165
2036.8000, -49.164
2037.2000, -49.233
2037.6000, -49.264
2038.0000, -49.276
2038.4000, -49.316
2038.8000, -49.371
2039.2000, -49.378
2039.6000, -49.430
2040.0000, -49.471
2040.4000, -49.489
2040.8000, -49.531
2041.2000, -49.580
2041.6000, -49.618
2042.0000, -49.635
2042.4000, -49.668
2042.8000, -49.713
2043.2000, -49.771
2043.6000, -49.770
2044.0000, -49.833
2044.4000, -49.858
2044.8000, -49.890
2045.2000, -49.973
2045.6000, -49.967
2046.0000, -50.059
2046.4000, -50.075
2046.8000, -50.106
2047.2000, -50.162
2047.6000, -50.204
2048.0000, -50.281
2048.4000, -50.250
2048.8000, -50.325
2049.2000, -50.412
2049.6000, -50.414
2050.0000, -50.443
2050.4000, -50.533
2050.8000, -50.549
2051.2000, -50.590
2051.6000, -50.699
2052.0000, -50.695
2052.4000, -50.757
2052.8000, -50.812
2053.2000, -50.912
2053.6000, -50.968
2054.0000, -51.009
2054.4000, -51.035
2054.8000, -51.088
2055.2000, -51.148
2055.6000, -51.246
2056.0000, -51.287
2056.4000, -51.347
2056.8000, -51.407
2057.2000, -51.455
2057.6000, -51.481
2058.0000, -51.558
2058.4000, -51.619
2058.8000, -51.681
2059.2000, -51.717
2059.6000, -51.803
2060.0000, -51.877
2060.4000, -51.894
2060.8000, -51.963
2061.2000, -52.008
2061.6000, -52.075
2062.0000, -52.184
2062.4000, -52.255
2062.8000, -52.266
2063.2000, -52.324
2063.6000, -52.390
2064.0000, -52.437
2064.4000, -52.555
2064.8000, -52.615
2065.2000, -52.638
2065.6000, -52.779
2066.0000, -52.719
2066.4000, -52.902
2066.8000, -52.873
2067.2000, -52.958
2067.6000, -53.071
2068.0000, -53.068
2068.4000, -53.189
2068.8000, -53.205
2069.2000, -53.300
2069.6000, -53.313
2070.0000, -53.446
2070.4000, -53.489
2070.8000, -53.508
2071.2000, -53.656
2071.6000, -53.613
2072.0000, -53.773
2072.4000, -53.813
2072.8000, -53.970
2073.2000, -53.956
2073.6000, -54.020
2074.0000, -54.100
2074.4000, -54.126
2074.8000, -54.301
2075.2000, -54.301
2075.6000, -54.356
2076.0000, -54.493
2076.4000, -54.473
2076.8000, -54.658
2077.2000, -54.597
2077.6000, -54.678
2078.0000, -54.821
2078.4000, -54.955
2078.8000, -54.913
2079.2000, -54.982
2079.6000, -55.176
2080.0000, -55.192
2080.4000, -55.319
2080.8000, -55.427
2081.2000, -55.406
2081.6000, -55.576
2082.0000, -55.637
2082.4000, -55.693
2082.8000, -55.800
2083.2000, -55.829
2083.6000, -56.008
2084.0000, -56.019
2084.4000, -56.165
2084.8000, -56.181
2085.2000, -56.223
2085.6000, -56.235
2086.0000, -56.578
2086.4000, -56.609
2086.8000, -56.688
2087.2000, -56.777
2087.6000, -56.804
2088.0000, -56.866
2088.4000, -57.018
2088.8000, -57.180
2089.2000, -57.320
2089.6000, -57.438
2090.0000, -57.326
2090.4000, -57.310
2090.8000, -57.516
2091.2000, -57.596
2091.6000, -57.818
2092.0000, -57.782
2092.4000, -57.750
2092.8000, -57.979
2093.2000, -57.996
2093.6000, -57.965
2094.0000, -57.915
2094.4000, -58.436
2094.8000, -58.395
2095.2000, -58.570
2095.6000, -58.727
2096.0000, -58.463
2096.4000, -58.760
2096.8000, -58.940
2097.2000, -59.058
2097.6000, -58.909
2098.0000, -59.006
2098.4000, -59.407
2098.8000, -59.239
2099.2000, -59.169
2099.6000, -59.482
2100.0000, -59.697
2100.4000, -59.677
2100.8000, -59.722
2101.2000, -59.825
2101.6000, -59.839
2102.0000, -59.874
2102.4000, -60.213
2102.8000, -60.265
2103.2000, -60.260
2103.6000, -60.358
2104.0000, -60.403
2104.4000, -60.400
2104.8000, -60.521
2105.2000, -60.848
2105.6000, -61.106
2106.0000, -60.738
2106.4000, -61.109
2106.8000, -60.953
2107.2000, -61.534
2107.6000, -61.276
2108.0000, -61.362
2108.4000, -61.299
2108.8000, -61.388
2109.2000, -61.879
2109.6000, -61.780
2110.0000, -61.511
2110.4000, -61.648
2110.8000, -61.780
2111.2000, -62.041
2111.6000, -61.858
2112.0000, -61.886
2112.4000, -61.857
2112.8000, -62.704
2113.2000, -62.559
2113.6000, -62.829
2114.0000, -62.013
2114.4000, -62.303
2114.8000, -62.814
2115.2000, -63.240
2115.6000, -62.587
2116.0000, -63.222
2116.4000, -63.552
2116.8000, -62.635
2117.2000, -63.262
2117.6000, -63.063
2118.0000, -63.743
2118.4000, -63.306
2118.8000, -63.397
2119.2000, -64.436
2119.6000, -64.212
2120.0000, -63.124
2120.4000, -64.005
2120.8000, -65.416
2121.2000, -63.899
2121.6000, -64.575
2122.0000, -63.942
2122.4000, -64.047
2122.8000, -64.778
2123.2000, -64.479
2123.6000, -64.843
2124.0000, -64.858
2124.4000, -64.519
2124.8000, -64.764
2125.2000, -64.754
2125.6000, -64.501
2126.0000, -64.952
2126.4000, -66.479
2126.8000, -64.581
2127.2000, -64.900
2127.6000, -64.817
2128.0000, -65.353
2128.4000, -66.055
2128.8000, -64.996
2129.2000, -64.782
2129.6000, -65.487
2130.0000, -65.444
2130.4000, -65.134
2130.8000, -65.334
2131.2000, -65.495
2131.6000, -65.819
2132.0000, -65.793
2132.4000, -65.639
2132.8000, -65.136
2133.2000, -65.054
2133.6000, -66.761
2134.0000, -65.122
2134.4000, -66.101
2134.8000, -65.324
2135.2000, -66.079
2135.6000, -65.866
2136.0000, -65.155
2136.4000, -66.262
2136.8000, -64.547
2137.2000, -65.278
2137.6000, -65.472
2138.0000, -65.660
2138.4000, -64.540
2138.8000, -65.150
2139.2000, -65.856
2139.6000, -67.097
2140.0000, -64.690
2140.4000, -65.439
2140.8000, -64.547
2141.2000, -65.290
2141.6000, -65.712
2142.0000, -64.939
2142.4000, -66.620
2142.8000, -65.237
2143.2000, -65.759
2143.6000, -64.632
2144.0000, -64.448
2144.4000, -66.235
2144.8000, -66.246
2145.2000, -65.282
2145.6000, -65.192
2146.0000, -65.066
2146.4000, -65.066
2146.8000, -66.479
2147.2000, -65.820
2147.6000, -64.827
2148.0000, -64.230
2148.4000, -64.432
2148.8000, -65.120
2149.2000, -64.742
2149.6000, -64.341
2150.0000, -65.238
2150.4000, -64.657
2150.8000, -64.473
2151.2000, -64.667
2151.6000, -64.701
2152.0000, -64.730
2152.4000, -64.525
2152.8000, -64.594
2153.2000, -64.809
2153.6000, -64.002
2154.0000, -64.226
2154.4000, -64.503
2154.8000, -63.929
2155.2000, -64.398
2155.6000, -64.498
2156.0000, -65.087
2156.4000, -63.954
2156.8000, -64.487
2157.2000, -64.770
2157.6000, -63.984
2158.0000, -64.851
2158.4000, -63.840
2158.8000, -64.599
2159.2000, -64.457
2159.6000, -64.539
2160.0000, -63.774
2160.4000, -63.529
2160.8000, -63.771
2161.2000, -63.461
2161.6000, -64.713
2162.0000, -64.342
2162.4000, -63.893
2162.8000, -64.072
2163.2000, -63.384
2163.6000, -63.538
2164.0000, -64.378
2164.4000, -63.092
2164.8000, -63.478
2165.2000, -64.188
2165.6000, -65.232
2166.0000, -63.777
2166.4000, -64.200
2166.8000, -63.839
2167.2000, -63.956
2167.6000, -64.509
2168.0000, -63.876
2168.4000, -63.546
2168.8000, -64.232
2169.2000, -64.070
2169.6000, -63.815
2170.0000, -63.638
2170.4000, -63.128
2170.8000, -63.232
2171.2000, -63.399
2171.6000, -63.115
2172.0000, -63.704
2172.4000, -64.315
2172.8000, -64.237
2173.2000, -63.260
2173.6000, -63.846
2174.0000, -63.449
2174.4000, -63.148
2174.8000, -63.062
2175.2000, -64.121
2175.6000, -63.818
2176.0000, -63.487
2176.4000, -63.745
2176.8000, -63.419
2177.2000, -63.086
2177.6000, -63.652
2178.0000, -63.640
2178.4000, -63.189
2178.8000, -63.229
2179.2000, -62.852
2179.6000, -63.823
2180.0000, -63.705
2180.4000, -63.282
2180.8000, -62.681
2181.2000, -63.599
2181.6000, -63.499
2182.0000, -63.436
2182.4000, -63.120
2182.8000, -63.216
2183.2000, -63.222
2183.6000, -63.237
2184.0000, -63.783
2184.4000, -63.204
2184.8000, -63.052
2185.2000, -62.767
2185.6000, -63.649
2186.0000, -63.597
2186.4000, -63.165
2186.8000, -63.346
2187.2000, -64.019
2187.6000, -63.990
2188.0000, -63.424
2188.4000, -63.950
2188.8000, -63.627
2189.2000, -63.439
2189.6000, -63.765
2190.0000, -63.634
2190.4000, -63.031
2190.8000, -62.944
2191.2000, -63.538
2191.6000, -63.597
2192.0000, -63.260
2192.4000, -63.840
2192.8000, -63.555
2193.2000, -63.458
2193.6000, -63.659
2194.0000, -64.136
2194.4000, -63.644
2194.8000, -64.096
2195.2000, -63.920
2195.6000, -63.292
2196.0000, -64.592
2196.4000, -63.459
2196.8000, -63.765
2197.2000, -64.286
2197.6000, -63.899
2198.0000, -63.960
2198.4000, -63.389
2198.8000, -64.268
2199.2000, -64.261
2199.6000, -63.980
2200.0000, -64.402
2200.4000, -63.992
2200.8000, -65.051
2201.2000, -64.588
2201.6000, -64.516
2202.0000, -64.322
2202.4000, -64.470
2202.8000, -64.407
2203.2000, -64.183
2203.6000, -64.674
2204.0000, -64.466
2204.4000, -65.126
2204.8000, -64.452
2205.2000, -63.970
2205.6000, -63.937
2206.0000, -64.588
2206.4000, -64.250
2206.8000, -64.899
2207.2000, -64.473
2207.6000, -64.687
2208.0000, -64.518
2208.4000, -65.442
2208.8000, -64.628
2209.2000, -65.247
2209.6000, -64.528
2210.0000, -65.129
2210.4000, -64.721
2210.8000, -66.248
2211.2000, -65.446
2211.6000, -66.332
2212.0000, -65.948
2212.4000, -65.446
2212.8000, -66.444
2213.2000, -65.153
2213.6000, -66.633
2214.0000, -65.642
2214.4000, -64.390
2214.8000, -67.228
2215.2000, -66.388
2215.6000, -67.229
2216.0000, -66.188
2216.4000, -65.990
2216.8000, -67.069
2217.2000, -65.132
2217.6000, -66.964
2218.0000, -66.475
2218.4000, -65.249
2218.8000, -70.512
2219.2000, -68.118
2219.6000, -66.687
2220.0000, -66.119
2220.4000, -67.278
2220.8000, -65.332
2221.2000, -69.290
2221.6000, -64.760
2222.0000, -68.978
2222.4000, -66.963
2222.8000, -68.779
2223.2000, -66.026
2223.6000, -68.091
2224.0000, -67.221
2224.4000, -67.358
2224.8000, -71.945
2225.2000, -67.782
2225.6000, -71.112
2226.0000, -67.507
2226.4000, -70.145
2226.8000, -68.449
2227.2000, -67.996
2227.6000, -70.257
2228.0000, -66.852
2228.4000, -69.789
2228.8000, -71.073
2229.2000, -68.805
2229.6000, -66.637
2230.0000, -68.325
2230.4000, -68.928
2230.8000, -68.162
2231.2000, -69.566
2231.6000, -69.344
2232.0000, -66.829
2232.4000, -68.420
2232.8000, -71.750
2233.2000, -68.840
2233.6000, -69.891
2234.0000, -73.356
2234.4000, -68.918
2234.8000, -67.282
2235.2000, -68.281
2235.6000, -67.018
2236.0000, -70.937
2236.4000, -68.351
2236.8000, -76.809
2237.2000, -71.510
2237.6000, -69.332
2238.0000, -75.541
2238.4000, -72.754
2238.8000, -71.039
2239.2000, -70.908
2239.6000, -68.391
2240.0000, -70.197
2240.4000, -72.893
2240.8000, -72.929
2241.2000, -69.056
2241.6000, -75.733
2242.0000, -71.394
2242.4000, -72.655
2242.8000,-210.000
2243.2000, -78.298
2243.6000, -71.091
2244.0000, -72.582
2244.4000, -68.645
2244.8000,-210.000
2245.2000, -70.302
2245.6000,-210.000
2246.0000,-210.000
2246.4000, -77.526
2246.8000, -77.273
2247.2000,-210.000
2247.6000, -70.727
2248.0000, -72.200
2248.4000, -79.168
2248.8000, -71.383
2249.2000, -70.242
2249.6000, -79.873
2250.0000, -72.889
2250.4000,-210.000
2250.8000, -81.135
2251.2000, -70.634
2251.6000, -71.313
2252.0000, -78.657
2252.4000,-210.000
2252.8000,-210.000
2253.2000, -71.531
2253.6000, -75.890
2254.0000, -72.093
2254.4000, -69.467
2254.8000, -70.826
2255.2000, -74.498
2255.6000, -69.556
2256.0000,-210.000
2256.4000, -72.297
2256.8000, -74.438
2257.2000,-210.000
2257.6000,-210.000
2258.0000,-210.000
2258.4000, -71.411
2258.8000,-210.000
2259.2000, -72.231
2259.6000,-210.000
2260.0000, -75.123
2260.4000, -78.981
2260.8000, -70.564
2261.2000, -72.223
2261.6000,-210.000
2262.0000, -83.421
2262.4000, -73.621
2262.8000,-210.000
2263.2000, -77.874
2263.6000, -69.361
2264.0000, -79.083
2264.4000,-210.000
2264.8000, -80.078
2265.2000, -73.270
2265.6000, -75.050
2266.0000, -80.899
2266.4000, -71.867
2266.8000,-210.000
2267.2000,-210.000
2267.6000, -74.636
2268.0000, -84.632
2268.4000,-210.000
2268.8000, -71.755
2269.2000, -82.401
2269.6000, -83.612
2270.0000,-210.000
2270.4000, -70.161
2270.8000, -73.449
2271.2000, -79.181
2271.6000, -71.259
2272.0000,-210.000
2272.4000,-210.000
2272.8000, -74.338
2273.2000, -69.857
2273.6000,-210.000
2274.0000, -76.096
2274.4000,-210.000
2274.8000, -71.208
2275.2000, -77.666
2275.6000, -70.032
2276.0000, -72.001
2276.4000,-210.000
2276.8000, -72.398
2277.2000,-210.000
2277.6000, -78.188
2278.0000,-210.000
2278.4000, -70.922
2278.8000,-210.000
2279.2000,-210.000
2279.6000, -77.418
2280.0000, -71.043
2280.4000, -70.169
2280.8000, -78.747
2281.2000, -71.977
2281.6000,-210.000
2282.0000, -78.410
2282.4000, -73.181
2282.8000,-210.000
2283.2000, -72.026
2283.6000, -75.098
2284.0000,-210.000
2284.4000,-210.000
2284.8000, -74.695
2285.2000,-210.000
2285.6000,-210.000
2286.0000, -70.606
2286.4000, -84.790
2286.8000, -76.394
2287.2000,-210.000
2287.6000,-210.000
2288.0000, -71.537
2288.4000, -78.896
2288.8000,-210.000
2289.2000, -70.448
2289.6000, -68.586
2290.0000,-210.000
2290.4000, -84.818
2290.8000, -71.516
2291.2000, -72.536
2291.6000, -73.634
2292.0000, -73.207
2292.4000,-210.000
2292.8000,-210.000
2293.2000, -69.322
2293.6000,-210.000
2294.0000,-210.000
2294.4000, -70.787
2294.8000,-210.000
2295.2000,-210.000
2295.6000, -72.209
2296.0000, -82.779
2296.4000, -79.384
2296.8000, -83.742
2297.2000, -74.464
2297.6000,-210.000
2298.0000, -81.952
2298.4000,-210.000
2298.8000, -76.812
2299.2000, -73.034
2299.6000, -70.659
2300.0000, -73.271
