75ECSV 	
// AQ6375E OPTICAL SPECTRUM ANALYZER //
40
"CTRWL",1650.000000
"SPAN",1300.000000
"START WL",1000.000000
"STOP WL",2300.000000
"WLFREQ", 0
"REFL", -9.6
"LSCL",10.0
"RESLN",2.000
"CUSTOM RES",0
"AVG",   1
"SMPLAUTO",      0
"SMPL",       3251
"SMPLINTVL",0.4000
"NORMAL"
"SENS LEVEL",-67.0
"MEAS"
"LSUNT",0
"NMSKH","OFF"
"RESCOR",0
"SMOOTH",0
"MEASWL",1
"MODELNAME",AQ6375E
"NEBWCAL0",    0
"NEBWCAL1",    0
"NEBWCALWL",   0
"RESCAL0_0",   9977
"RESCAL0_1",      0
"RESCAL0_2",      0
"RESCAL1_0",   9977
"RESCAL1_1",      0
"RESCAL1_2",      0









"[TRACE DATA]"
1000.0000, -66.121
1000.4000, -58.646
1000.8000, -57.336
1001.2000, -63.345
1001.6000, -64.166
1002.0000,-210.000
1002.4000, -58.941
1002.8000, -62.899
1003.2000, -61.381
1003.6000, -57.958
1004.0000, -63.187
1004.4000, -57.400
1004.8000, -66.674
1005.2000, -59.123
1005.6000,-210.000
1006.0000, -64.726
1006.4000,-210.000
1006.8000, -60.365
1007.2000, -65.702
1007.6000, -64.979
1008.0000, -58.690
1008.4000, -68.752
1008.8000, -65.881
1009.2000, -63.401
1009.6000, -57.866
1010.0000, -61.609
1010.4000, -61.017
1010.8000, -60.966
1011.2000, -58.576
1011.6000, -60.611
1012.0000, -58.211
1012.4000, -58.766
1012.8000, -62.295
1013.2000, -60.403
1013.6000,-210.000
1014.0000, -62.223
1014.4000, -58.015
1014.8000, -59.984
1015.2000, -66.924
1015.6000, -60.422
1016.0000, -58.985
1016.4000, -57.655
1016.8000, -57.663
1017.2000, -62.763
1017.6000, -59.792
1018.0000, -59.450
1018.4000, -58.257
1018.8000, -64.407
1019.2000, -70.020
1019.6000, -69.093
1020.0000, -59.584
1020.4000, -58.683
1020.8000, -59.250
1021.2000, -59.960
1021.6000, -60.557
1022.0000, -57.461
1022.4000, -56.614
1022.8000, -58.288
1023.2000, -59.157
1023.6000, -63.096
1024.0000, -58.083
1024.4000, -57.676
1024.8000, -56.291
1025.2000, -57.570
1025.6000, -58.259
1026.0000, -55.861
1026.4000, -56.008
1026.8000, -55.334
1027.2000, -55.642
1027.6000, -55.147
1028.0000, -56.306
1028.4000, -53.766
1028.8000, -55.727
1029.2000, -54.967
1029.6000, -55.630
1030.0000, -53.939
1030.4000, -53.233
1030.8000, -54.248
1031.2000, -55.273
1031.6000, -54.147
1032.0000, -52.942
1032.4000, -52.277
1032.8000, -53.089
1033.2000, -52.634
1033.6000, -51.987
1034.0000, -51.497
1034.4000, -51.910
1034.8000, -51.519
1035.2000, -51.446
1035.6000, -50.363
1036.0000, -50.643
1036.4000, -51.475
1036.8000, -50.358
1037.2000, -49.365
1037.6000, -49.374
1038.0000, -50.069
1038.4000, -49.710
1038.8000, -48.639
1039.2000, -48.528
1039.6000, -49.006
1040.0000, -48.820
1040.4000, -47.953
1040.8000, -47.348
1041.2000, -47.857
1041.6000, -48.211
1042.0000, -47.058
1042.4000, -46.514
1042.8000, -46.958
1043.2000, -47.049
1043.6000, -46.394
1044.0000, -45.641
1044.4000, -46.064
1044.8000, -46.298
1045.2000, -45.569
1045.6000, -44.852
1046.0000, -45.150
1046.4000, -45.653
1046.8000, -45.000
1047.2000, -44.200
1047.6000, -44.387
1048.0000, -44.872
1048.4000, -44.363
1048.8000, -43.541
1049.2000, -43.637
1049.6000, -44.278
1050.0000, -43.809
1050.4000, -42.908
1050.8000, -43.019
1051.2000, -43.592
1051.6000, -43.199
1052.0000, -42.350
1052.4000, -42.479
1052.8000, -43.034
1053.2000, -42.536
1053.6000, -41.728
1054.0000, -41.880
1054.4000, -42.456
1054.8000, -41.915
1055.2000, -41.230
1055.6000, -41.532
1056.0000, -42.028
1056.4000, -41.448
1056.8000, -40.879
1057.2000, -41.156
1057.6000, -41.637
1058.0000, -41.023
1058.4000, -40.430
1058.8000, -40.804
1059.2000, -41.196
1059.6000, -40.543
1060.0000, -40.060
1060.4000, -40.554
1060.8000, -40.823
1061.2000, -40.129
1061.6000, -39.886
1062.0000, -40.431
1062.4000, -40.571
1062.8000, -39.856
1063.2000, -39.714
1063.6000, -40.351
1064.0000, -40.181
1064.4000, -39.494
1064.8000, -39.541
1065.2000, -40.121
1065.6000, -39.756
1066.0000, -39.168
1066.4000, -39.400
1066.8000, -39.837
1067.2000, -39.326
1067.6000, -38.834
1068.0000, -39.292
1068.4000, -39.563
1068.8000, -38.945
1069.2000, -38.715
1069.6000, -39.288
1070.0000, -39.302
1070.4000, -38.668
1070.8000, -38.725
1071.2000, -39.296
1071.6000, -38.982
1072.0000, -38.427
1072.4000, -38.717
1072.8000, -39.087
1073.2000, -38.542
1073.6000, -38.231
1074.0000, -38.718
1074.4000, -38.831
1074.8000, -38.227
1075.2000, -38.228
1075.6000, -38.748
1076.0000, -38.525
1076.4000, -38.053
1076.8000, -38.362
1077.2000, -38.730
1077.6000, -38.256
1078.0000, -38.028
1078.4000, -38.546
1078.8000, -38.539
1079.2000, -37.970
1079.6000, -38.092
1080.0000, -38.524
1080.4000, -38.124
1080.8000, -37.758
1081.2000, -38.150
1081.6000, -38.315
1082.0000, -37.837
1082.4000, -37.870
1082.8000, -38.422
1083.2000, -38.268
1083.6000, -37.882
1084.0000, -38.257
1084.4000, -38.554
1084.8000, -38.130
1085.2000, -38.105
1085.6000, -38.544
1086.0000, -38.406
1086.4000, -38.041
1086.8000, -38.354
1087.2000, -38.607
1087.6000, -38.206
1088.0000, -38.196
1088.4000, -38.608
1088.8000, -38.428
1089.2000, -38.130
1089.6000, -38.449
1090.0000, -38.661
1090.4000, -38.338
1090.8000, -38.408
1091.2000, -38.866
1091.6000, -38.764
1092.0000, -38.548
1092.4000, -38.950
1092.8000, -39.067
1093.2000, -38.783
1093.6000, -38.922
1094.0000, -39.209
1094.4000, -39.015
1094.8000, -38.913
1095.2000, -39.330
1095.6000, -39.415
1096.0000, -39.205
1096.4000, -39.506
1096.8000, -39.816
1097.2000, -39.625
1097.6000, -39.695
1098.0000, -40.101
1098.4000, -40.008
1098.8000, -39.964
1099.2000, -40.294
1099.6000, -40.463
1100.0000, -40.334
1100.4000, -40.660
1100.8000, -40.969
1101.2000, -40.882
1101.6000, -41.019
1102.0000, -41.478
1102.4000, -41.422
1102.8000, -41.472
1103.2000, -41.836
1103.6000, -41.998
1104.0000, -41.984
1104.4000, -42.294
1104.8000, -42.554
1105.2000, -42.524
1105.6000, -42.750
1106.0000, -43.131
1106.4000, -43.022
1106.8000, -43.189
1107.2000, -43.579
1107.6000, -43.679
1108.0000, -43.690
1108.4000, -44.014
1108.8000, -44.315
1109.2000, -44.344
1109.6000, -44.567
1110.0000, -44.858
1110.4000, -44.914
1110.8000, -45.136
1111.2000, -45.329
1111.6000, -45.337
1112.0000, -45.490
1112.4000, -46.004
1112.8000, -46.048
1113.2000, -46.077
1113.6000, -46.451
1114.0000, -46.485
1114.4000, -46.404
1114.8000, -46.667
1115.2000, -46.710
1115.6000, -46.670
1116.0000, -46.805
1116.4000, -47.028
1116.8000, -46.902
1117.2000, -47.128
1117.6000, -47.208
1118.0000, -47.095
1118.4000, -47.256
1118.8000, -47.388
1119.2000, -47.240
1119.6000, -47.273
1120.0000, -47.302
1120.4000, -47.396
1120.8000, -47.313
1121.2000, -47.379
1121.6000, -47.298
1122.0000, -47.418
1122.4000, -47.219
1122.8000, -47.271
1123.2000, -47.256
1123.6000, -47.238
1124.0000, -47.206
1124.4000, -47.096
1124.8000, -47.115
1125.2000, -47.211
1125.6000, -46.973
1126.0000, -47.096
1126.4000, -47.009
1126.8000, -47.010
1127.2000, -46.837
1127.6000, -46.882
1128.0000, -46.934
1128.4000, -46.779
1128.8000, -46.853
1129.2000, -46.894
1129.6000, -46.748
1130.0000, -46.822
1130.4000, -46.771
1130.8000, -46.655
1131.2000, -46.778
1131.6000, -46.592
1132.0000, -46.666
1132.4000, -46.904
1132.8000, -46.734
1133.2000, -46.617
1133.6000, -46.912
1134.0000, -46.772
1134.4000, -46.729
1134.8000, -47.020
1135.2000, -46.929
1135.6000, -46.896
1136.0000, -47.216
1136.4000, -47.087
1136.8000, -47.223
1137.2000, -47.466
1137.6000, -47.278
1138.0000, -47.496
1138.4000, -47.762
1138.8000, -47.777
1139.2000, -47.857
1139.6000, -47.906
1140.0000, -47.999
1140.4000, -48.319
1140.8000, -48.591
1141.2000, -48.320
1141.6000, -48.779
1142.0000, -48.884
1142.4000, -48.672
1142.8000, -49.079
1143.2000, -49.186
1143.6000, -49.018
1144.0000, -49.725
1144.4000, -49.734
1144.8000, -49.758
1145.2000, -50.103
1145.6000, -50.079
1146.0000, -50.118
1146.4000, -50.472
1146.8000, -50.440
1147.2000, -50.785
1147.6000, -51.081
1148.0000, -50.813
1148.4000, -51.428
1148.8000, -51.388
1149.2000, -51.270
1149.6000, -52.044
1150.0000, -51.927
1150.4000, -51.976
1150.8000, -52.030
1151.2000, -51.999
1151.6000, -52.519
1152.0000, -52.765
1152.4000, -52.401
1152.8000, -52.863
1153.2000, -53.219
1153.6000, -53.007
1154.0000, -53.727
1154.4000, -53.043
1154.8000, -53.068
1155.2000, -53.445
1155.6000, -53.740
1156.0000, -53.975
1156.4000, -54.080
1156.8000, -53.390
1157.2000, -53.940
1157.6000, -54.239
1158.0000, -54.051
1158.4000, -54.497
1158.8000, -54.238
1159.2000, -54.322
1159.6000, -54.445
1160.0000, -54.445
1160.4000, -53.932
1160.8000, -54.823
1161.2000, -53.795
1161.6000, -54.667
1162.0000, -54.541
1162.4000, -54.425
1162.8000, -54.269
1163.2000, -53.880
1163.6000, -54.125
1164.0000, -54.333
1164.4000, -53.944
1164.8000, -54.656
1165.2000, -54.686
1165.6000, -53.596
1166.0000, -54.038
1166.4000, -54.133
1166.8000, -53.859
1167.2000, -53.793
1167.6000, -53.580
1168.0000, -53.729
1168.4000, -53.711
1168.8000, -53.040
1169.2000, -53.801
1169.6000, -53.267
1170.0000, -53.401
1170.4000, -53.672
1170.8000, -52.832
1171.2000, -53.238
1171.6000, -52.834
1172.0000, -52.667
1172.4000, -53.124
1172.8000, -52.423
1173.2000, -53.847
1173.6000, -52.861
1174.0000, -52.545
1174.4000, -53.412
1174.8000, -52.649
1175.2000, -53.155
1175.6000, -52.778
1176.0000, -52.451
1176.4000, -52.914
1176.8000, -52.267
1177.2000, -52.927
1177.6000, -52.589
1178.0000, -52.410
1178.4000, -53.065
1178.8000, -52.835
1179.2000, -53.108
1179.6000, -53.289
1180.0000, -53.084
1180.4000, -53.402
1180.8000, -53.099
1181.2000, -53.075
1181.6000, -53.618
1182.0000, -52.886
1182.4000, -53.434
1182.8000, -53.131
1183.2000, -53.733
1183.6000, -53.704
1184.0000, -53.640
1184.4000, -54.218
1184.8000, -53.501
1185.2000, -54.289
1185.6000, -54.162
1186.0000, -54.483
1186.4000, -54.201
1186.8000, -53.800
1187.2000, -54.689
1187.6000, -54.761
1188.0000, -54.430
1188.4000, -55.503
1188.8000, -54.867
1189.2000, -55.673
1189.6000, -55.259
1190.0000, -55.245
1190.4000, -55.611
1190.8000, -55.169
1191.2000, -55.450
1191.6000, -56.282
1192.0000, -55.754
1192.4000, -56.543
1192.8000, -55.505
1193.2000, -55.635
1193.6000, -55.813
1194.0000, -55.497
1194.4000, -56.129
1194.8000, -55.343
1195.2000, -56.108
1195.6000, -55.897
1196.0000, -56.922
1196.4000, -56.083
1196.8000, -55.196
1197.2000, -56.263
1197.6000, -55.651
1198.0000, -56.029
1198.4000, -55.755
1198.8000, -55.558
1199.2000, -55.491
1199.6000, -55.358
1200.0000, -55.824
1200.4000, -55.949
1200.8000, -55.832
1201.2000, -54.818
1201.6000, -55.246
1202.0000, -54.977
1202.4000, -55.019
1202.8000, -55.535
1203.2000, -54.447
1203.6000, -55.042
1204.0000, -53.783
1204.4000, -54.727
1204.8000, -54.525
1205.2000, -54.088
1205.6000, -54.366
1206.0000, -54.544
1206.4000, -54.001
1206.8000, -54.268
1207.2000, -53.933
1207.6000, -53.569
1208.0000, -53.882
1208.4000, -54.172
1208.8000, -53.950
1209.2000, -54.025
1209.6000, -54.199
1210.0000, -53.863
1210.4000, -53.897
1210.8000, -53.438
1211.2000, -53.977
1211.6000, -53.902
1212.0000, -54.145
1212.4000, -54.305
1212.8000, -54.472
1213.2000, -54.438
1213.6000, -54.253
1214.0000, -54.863
1214.4000, -54.665
1214.8000, -54.686
1215.2000, -54.298
1215.6000, -54.600
1216.0000, -54.709
1216.4000, -55.256
1216.8000, -55.084
1217.2000, -55.232
1217.6000, -55.549
1218.0000, -55.317
1218.4000, -55.938
1218.8000, -55.356
1219.2000, -56.370
1219.6000, -55.656
1220.0000, -56.138
1220.4000, -55.831
1220.8000, -55.828
1221.2000, -56.252
1221.6000, -56.652
1222.0000, -56.491
1222.4000, -56.029
1222.8000, -55.776
1223.2000, -56.148
1223.6000, -56.680
1224.0000, -56.047
1224.4000, -56.141
1224.8000, -55.991
1225.2000, -55.862
1225.6000, -55.552
1226.0000, -56.703
1226.4000, -55.387
1226.8000, -55.861
1227.2000, -55.761
1227.6000, -55.655
1228.0000, -55.530
1228.4000, -55.443
1228.8000, -55.397
1229.2000, -55.377
1229.6000, -55.363
1230.0000, -54.996
1230.4000, -54.845
1230.8000, -55.339
1231.2000, -54.648
1231.6000, -54.655
1232.0000, -54.879
1232.4000, -55.020
1232.8000, -54.709
1233.2000, -54.794
1233.6000, -55.197
1234.0000, -54.650
1234.4000, -55.190
1234.8000, -55.063
1235.2000, -55.163
1235.6000, -55.326
1236.0000, -55.266
1236.4000, -55.498
1236.8000, -55.387
1237.2000, -55.286
1237.6000, -54.902
1238.0000, -55.701
1238.4000, -56.180
1238.8000, -56.155
1239.2000, -55.858
1239.6000, -55.920
1240.0000, -56.182
1240.4000, -56.175
1240.8000, -56.777
1241.2000, -56.726
1241.6000, -56.871
1242.0000, -56.551
1242.4000, -57.665
1242.8000, -57.174
1243.2000, -57.210
1243.6000, -57.315
1244.0000, -58.155
1244.4000, -57.486
1244.8000, -56.738
1245.2000, -57.603
1245.6000, -57.698
1246.0000, -57.496
1246.4000, -57.752
1246.8000, -57.378
1247.2000, -57.256
1247.6000, -57.172
1248.0000, -56.875
1248.4000, -57.216
1248.8000, -57.236
1249.2000, -56.517
1249.6000, -56.953
1250.0000, -56.144
1250.4000, -56.422
1250.8000, -56.435
1251.2000, -56.336
1251.6000, -55.885
1252.0000, -56.280
1252.4000, -55.828
1252.8000, -55.042
1253.2000, -55.323
1253.6000, -55.624
1254.0000, -55.740
1254.4000, -55.279
1254.8000, -55.408
1255.2000, -55.291
1255.6000, -54.811
1256.0000, -54.867
1256.4000, -55.004
1256.8000, -54.629
1257.2000, -54.945
1257.6000, -55.021
1258.0000, -54.985
1258.4000, -54.728
1258.8000, -55.431
1259.2000, -55.170
1259.6000, -55.040
1260.0000, -55.533
1260.4000, -55.520
1260.8000, -55.855
1261.2000, -55.431
1261.6000, -55.503
1262.0000, -55.951
1262.4000, -56.273
1262.8000, -56.559
1263.2000, -56.667
1263.6000, -56.448
1264.0000, -56.928
1264.4000, -57.542
1264.8000, -56.937
1265.2000, -57.367
1265.6000, -57.279
1266.0000, -57.675
1266.4000, -56.898
1266.8000, -58.121
1267.2000, -56.820
1267.6000, -57.269
1268.0000, -57.378
1268.4000, -57.828
1268.8000, -57.404
1269.2000, -57.650
1269.6000, -56.852
1270.0000, -56.635
1270.4000, -55.903
1270.8000, -56.058
1271.2000, -56.286
1271.6000, -55.962
1272.0000, -55.859
1272.4000, -56.072
1272.8000, -55.861
1273.2000, -55.689
1273.6000, -55.338
1274.0000, -55.382
1274.4000, -55.396
1274.8000, -55.581
1275.2000, -55.046
1275.6000, -55.036
1276.0000, -55.023
1276.4000, -54.923
1276.8000, -55.147
1277.2000, -54.871
1277.6000, -54.910
1278.0000, -54.946
1278.4000, -54.827
1278.8000, -55.090
1279.2000, -55.133
1279.6000, -55.261
1280.0000, -55.372
1280.4000, -56.147
1280.8000, -55.632
1281.2000, -55.766
1281.6000, -55.756
1282.0000, -55.932
1282.4000, -56.243
1282.8000, -56.310
1283.2000, -56.872
1283.6000, -56.497
1284.0000, -57.240
1284.4000, -56.735
1284.8000, -57.064
1285.2000, -56.964
1285.6000, -56.946
1286.0000, -57.288
1286.4000, -56.834
1286.8000, -57.200
1287.2000, -56.560
1287.6000, -57.225
1288.0000, -56.848
1288.4000, -56.869
1288.8000, -56.590
1289.2000, -56.333
1289.6000, -56.308
1290.0000, -55.492
1290.4000, -55.946
1290.8000, -55.568
1291.2000, -55.579
1291.6000, -55.209
1292.0000, -55.067
1292.4000, -54.788
1292.8000, -54.471
1293.2000, -54.611
1293.6000, -54.604
1294.0000, -54.446
1294.4000, -54.759
1294.8000, -54.156
1295.2000, -54.126
1295.6000, -53.963
1296.0000, -54.368
1296.4000, -54.173
1296.8000, -54.172
1297.2000, -54.236
1297.6000, -54.256
1298.0000, -54.630
1298.4000, -54.477
1298.8000, -54.623
1299.2000, -54.812
1299.6000, -55.042
1300.0000, -54.865
1300.4000, -55.123
1300.8000, -55.495
1301.2000, -55.502
1301.6000, -55.471
1302.0000, -55.523
1302.4000, -55.736
1302.8000, -55.713
1303.2000, -56.096
1303.6000, -55.997
1304.0000, -55.860
1304.4000, -55.986
1304.8000, -56.064
1305.2000, -55.797
1305.6000, -55.752
1306.0000, -56.114
1306.4000, -55.602
1306.8000, -55.485
1307.2000, -55.344
1307.6000, -55.321
1308.0000, -54.956
1308.4000, -54.831
1308.8000, -54.695
1309.2000, -54.398
1309.6000, -54.609
1310.0000, -54.168
1310.4000, -54.081
1310.8000, -53.928
1311.2000, -53.797
1311.6000, -53.866
1312.0000, -53.673
1312.4000, -53.573
1312.8000, -53.533
1313.2000, -53.448
1313.6000, -53.334
1314.0000, -53.399
1314.4000, -53.655
1314.8000, -53.493
1315.2000, -53.519
1315.6000, -53.729
1316.0000, -53.623
1316.4000, -53.678
1316.8000, -53.994
1317.2000, -54.149
1317.6000, -54.156
1318.0000, -54.193
1318.4000, -54.321
1318.8000, -54.508
1319.2000, -54.819
1319.6000, -54.773
1320.0000, -54.905
1320.4000, -54.981
1320.8000, -54.810
1321.2000, -55.024
1321.6000, -55.164
1322.0000, -55.101
1322.4000, -54.873
1322.8000, -55.095
1323.2000, -54.811
1323.6000, -54.686
1324.0000, -54.493
1324.4000, -54.352
1324.8000, -54.069
1325.2000, -53.988
1325.6000, -53.807
1326.0000, -53.590
1326.4000, -53.374
1326.8000, -53.304
1327.2000, -53.188
1327.6000, -52.965
1328.0000, -52.717
1328.4000, -52.905
1328.8000, -52.766
1329.2000, -52.591
1329.6000, -52.509
1330.0000, -52.755
1330.4000, -52.650
1330.8000, -52.800
1331.2000, -52.854
1331.6000, -52.809
1332.0000, -53.035
1332.4000, -53.072
1332.8000, -53.131
1333.2000, -53.213
1333.6000, -53.524
1334.0000, -53.512
1334.4000, -53.626
1334.8000, -53.811
1335.2000, -53.895
1335.6000, -54.115
1336.0000, -54.268
1336.4000, -54.208
1336.8000, -54.296
1337.2000, -54.521
1337.6000, -54.553
1338.0000, -54.381
1338.4000, -54.250
1338.8000, -54.358
1339.2000, -54.227
1339.6000, -54.072
1340.0000, -53.813
1340.4000, -53.752
1340.8000, -53.660
1341.2000, -53.416
1341.6000, -53.165
1342.0000, -53.123
1342.4000, -52.996
1342.8000, -52.893
1343.2000, -52.752
1343.6000, -52.696
1344.0000, -52.711
1344.4000, -52.546
1344.8000, -52.530
1345.2000, -52.577
1345.6000, -52.371
1346.0000, -52.680
1346.4000, -52.599
1346.8000, -52.679
1347.2000, -52.786
1347.6000, -52.985
1348.0000, -53.194
1348.4000, -53.164
1348.8000, -53.582
1349.2000, -53.660
1349.6000, -53.744
1350.0000, -53.875
1350.4000, -54.199
1350.8000, -54.079
1351.2000, -54.357
1351.6000, -54.254
1352.0000, -54.538
1352.4000, -54.440
1352.8000, -54.319
1353.2000, -54.546
1353.6000, -54.323
1354.0000, -54.336
1354.4000, -54.056
1354.8000, -54.150
1355.2000, -53.958
1355.6000, -53.869
1356.0000, -53.649
1356.4000, -53.561
1356.8000, -53.436
1357.2000, -53.169
1357.6000, -53.158
1358.0000, -53.124
1358.4000, -53.057
1358.8000, -52.830
1359.2000, -52.818
1359.6000, -52.962
1360.0000, -52.798
1360.4000, -52.885
1360.8000, -52.871
1361.2000, -52.986
1361.6000, -53.214
1362.0000, -53.282
1362.4000, -53.354
1362.8000, -53.413
1363.2000, -53.444
1363.6000, -53.511
1364.0000, -53.725
1364.4000, -53.871
1364.8000, -54.117
1365.2000, -53.992
1365.6000, -54.292
1366.0000, -54.134
1366.4000, -54.101
1366.8000, -54.176
1367.2000, -54.170
1367.6000, -54.264
1368.0000, -54.128
1368.4000, -54.109
1368.8000, -53.893
1369.2000, -53.748
1369.6000, -53.475
1370.0000, -53.283
1370.4000, -53.176
1370.8000, -53.011
1371.2000, -52.903
1371.6000, -52.732
1372.0000, -52.564
1372.4000, -52.555
1372.8000, -52.324
1373.2000, -52.329
1373.6000, -52.292
1374.0000, -52.222
1374.4000, -52.331
1374.8000, -52.229
1375.2000, -52.311
1375.6000, -52.364
1376.0000, -52.528
1376.4000, -52.425
1376.8000, -52.617
1377.2000, -52.710
1377.6000, -52.903
1378.0000, -52.848
1378.4000, -53.014
1378.8000, -53.078
1379.2000, -53.150
1379.6000, -53.232
1380.0000, -53.389
1380.4000, -53.471
1380.8000, -53.437
1381.2000, -53.571
1381.6000, -53.387
1382.0000, -53.228
1382.4000, -53.214
1382.8000, -53.045
1383.2000, -52.956
1383.6000, -52.819
1384.0000, -52.564
1384.4000, -52.365
1384.8000, -52.220
1385.2000, -52.014
1385.6000, -51.904
1386.0000, -51.737
1386.4000, -51.717
1386.8000, -51.589
1387.2000, -51.578
1387.6000, -51.472
1388.0000, -51.535
1388.4000, -51.622
1388.8000, -51.555
1389.2000, -51.563
1389.6000, -51.565
1390.0000, -51.678
1390.4000, -51.820
1390.8000, -51.986
1391.2000, -52.059
1391.6000, -52.287
1392.0000, -52.327
1392.4000, -52.537
1392.8000, -52.424
1393.2000, -52.564
1393.6000, -52.473
1394.0000, -52.507
1394.4000, -52.514
1394.8000, -52.493
1395.2000, -52.451
1395.6000, -52.368
1396.0000, -52.322
1396.4000, -52.175
1396.8000, -51.981
1397.2000, -51.795
1397.6000, -51.683
1398.0000, -51.515
1398.4000, -51.503
1398.8000, -51.467
1399.2000, -51.465
1399.6000, -51.509
1400.0000, -51.555
1400.4000, -51.562
1400.8000, -51.545
1401.2000, -51.579
1401.6000, -51.641
1402.0000, -51.668
1402.4000, -51.594
1402.8000, -51.721
1403.2000, -51.869
1403.6000, -52.019
1404.0000, -52.282
1404.4000, -52.337
1404.8000, -52.447
1405.2000, -52.622
1405.6000, -52.618
1406.0000, -52.670
1406.4000, -52.669
1406.8000, -52.636
1407.2000, -52.691
1407.6000, -52.517
1408.0000, -52.517
1408.4000, -52.398
1408.8000, -52.477
1409.2000, -52.260
1409.6000, -52.198
1410.0000, -52.091
1410.4000, -52.080
1410.8000, -52.073
1411.2000, -51.968
1411.6000, -51.966
1412.0000, -52.097
1412.4000, -52.059
1412.8000, -52.288
1413.2000, -52.246
1413.6000, -52.313
1414.0000, -52.484
1414.4000, -52.654
1414.8000, -52.858
1415.2000, -52.743
1415.6000, -52.905
1416.0000, -53.068
1416.4000, -53.013
1416.8000, -53.341
1417.2000, -53.198
1417.6000, -53.268
1418.0000, -53.365
1418.4000, -53.341
1418.8000, -53.452
1419.2000, -53.425
1419.6000, -53.423
1420.0000, -53.491
1420.4000, -53.296
1420.8000, -53.260
1421.2000, -53.138
1421.6000, -53.331
1422.0000, -53.284
1422.4000, -53.235
1422.8000, -53.205
1423.2000, -53.317
1423.6000, -53.244
1424.0000, -53.317
1424.4000, -53.379
1424.8000, -53.406
1425.2000, -53.338
1425.6000, -53.402
1426.0000, -53.507
1426.4000, -53.579
1426.8000, -53.626
1427.2000, -53.674
1427.6000, -53.635
1428.0000, -53.808
1428.4000, -53.484
1428.8000, -53.638
1429.2000, -53.734
1429.6000, -53.609
1430.0000, -53.683
1430.4000, -53.831
1430.8000, -53.748
1431.2000, -53.716
1431.6000, -53.653
1432.0000, -53.661
1432.4000, -53.681
1432.8000, -53.578
1433.2000, -53.712
1433.6000, -53.699
1434.0000, -53.620
1434.4000, -53.555
1434.8000, -53.641
1435.2000, -53.429
1435.6000, -53.418
1436.0000, -53.483
1436.4000, -53.350
1436.8000, -53.398
1437.2000, -53.354
1437.6000, -53.183
1438.0000, -53.342
1438.4000, -53.396
1438.8000, -53.245
1439.2000, -53.223
1439.6000, -53.346
1440.0000, -53.344
1440.4000, -53.437
1440.8000, -53.318
1441.2000, -53.316
1441.6000, -53.273
1442.0000, -53.359
1442.4000, -53.365
1442.8000, -53.134
1443.2000, -53.275
1443.6000, -53.150
1444.0000, -53.304
1444.4000, -53.230
1444.8000, -53.254
1445.2000, -53.252
1445.6000, -53.316
1446.0000, -53.333
1446.4000, -53.244
1446.8000, -53.328
1447.2000, -53.167
1447.6000, -53.437
1448.0000, -53.298
1448.4000, -53.410
1448.8000, -53.354
1449.2000, -53.546
1449.6000, -53.672
1450.0000, -53.478
1450.4000, -53.684
1450.8000, -53.633
1451.2000, -53.621
1451.6000, -53.954
1452.0000, -53.876
1452.4000, -53.910
1452.8000, -54.055
1453.2000, -53.988
1453.6000, -54.183
1454.0000, -54.367
1454.4000, -54.426
1454.8000, -54.417
1455.2000, -54.365
1455.6000, -54.779
1456.0000, -54.904
1456.4000, -55.051
1456.8000, -55.088
1457.2000, -55.377
1457.6000, -55.462
1458.0000, -55.462
1458.4000, -55.790
1458.8000, -55.844
1459.2000, -56.033
1459.6000, -55.969
1460.0000, -56.406
1460.4000, -56.356
1460.8000, -56.656
1461.2000, -57.150
1461.6000, -57.245
1462.0000, -57.119
1462.4000, -57.422
1462.8000, -57.750
1463.2000, -57.974
1463.6000, -58.219
1464.0000, -58.850
1464.4000, -58.872
1464.8000, -58.970
1465.2000, -59.290
1465.6000, -59.721
1466.0000, -60.726
1466.4000, -60.264
1466.8000, -61.010
1467.2000, -61.465
1467.6000, -62.397
1468.0000, -62.058
1468.4000, -63.479
1468.8000, -64.565
1469.2000, -66.572
1469.6000, -64.932
1470.0000, -65.485
1470.4000, -70.365
1470.8000, -70.816
1471.2000, -68.032
1471.6000, -66.797
1472.0000, -70.780
1472.4000, -69.743
1472.8000, -68.910
1473.2000, -73.059
1473.6000, -70.932
1474.0000, -69.942
1474.4000,-210.000
1474.8000, -67.799
1475.2000, -69.031
1475.6000, -70.521
1476.0000, -68.640
1476.4000, -67.043
1476.8000, -63.897
1477.2000, -63.710
1477.6000, -62.901
1478.0000, -63.238
1478.4000, -61.490
1478.8000, -60.346
1479.2000, -59.328
1479.6000, -59.187
1480.0000, -57.910
1480.4000, -57.416
1480.8000, -56.704
1481.2000, -56.174
1481.6000, -55.505
1482.0000, -55.187
1482.4000, -54.671
1482.8000, -54.100
1483.2000, -53.887
1483.6000, -53.530
1484.0000, -53.334
1484.4000, -53.036
1484.8000, -52.768
1485.2000, -52.649
1485.6000, -52.559
1486.0000, -52.307
1486.4000, -52.197
1486.8000, -52.215
1487.2000, -52.037
1487.6000, -52.003
1488.0000, -52.054
1488.4000, -51.913
1488.8000, -51.919
1489.2000, -51.796
1489.6000, -51.764
1490.0000, -51.793
1490.4000, -51.701
1490.8000, -51.665
1491.2000, -51.512
1491.6000, -51.523
1492.0000, -51.422
1492.4000, -51.353
1492.8000, -51.240
1493.2000, -51.239
1493.6000, -51.129
1494.0000, -51.005
1494.4000, -50.984
1494.8000, -50.963
1495.2000, -50.877
1495.6000, -50.832
1496.0000, -50.770
1496.4000, -50.776
1496.8000, -50.737
1497.2000, -50.707
1497.6000, -50.769
1498.0000, -50.707
1498.4000, -50.791
1498.8000, -50.911
1499.2000, -50.985
1499.6000, -51.188
1500.0000, -51.437
1500.4000, -51.596
1500.8000, -51.977
1501.2000, -52.307
1501.6000, -52.712
1502.0000, -53.119
1502.4000, -53.765
1502.8000, -54.249
1503.2000, -55.006
1503.6000, -55.680
1504.0000, -56.706
1504.4000, -57.498
1504.8000, -58.737
1505.2000, -59.918
1505.6000, -61.401
1506.0000, -62.882
1506.4000, -63.854
1506.8000, -63.644
1507.2000, -65.144
1507.6000, -63.535
1508.0000, -62.807
1508.4000, -61.565
1508.8000, -60.843
1509.2000, -59.523
1509.6000, -58.943
1510.0000, -57.934
1510.4000, -57.491
1510.8000, -57.097
1511.2000, -56.807
1511.6000, -56.224
1512.0000, -56.021
1512.4000, -55.858
1512.8000, -55.864
1513.2000, -55.705
1513.6000, -55.907
1514.0000, -55.829
1514.4000, -55.823
1514.8000, -55.793
1515.2000, -55.987
1515.6000, -55.970
1516.0000, -55.873
1516.4000, -55.669
1516.8000, -55.306
1517.2000, -54.832
1517.6000, -54.502
1518.0000, -53.908
1518.4000, -53.477
1518.8000, -52.694
1519.2000, -52.110
1519.6000, -51.470
1520.0000, -50.873
1520.4000, -50.327
1520.8000, -49.768
1521.2000, -49.235
1521.6000, -48.700
1522.0000, -48.278
1522.4000, -47.784
1522.8000, -47.380
1523.2000, -46.954
1523.6000, -46.568
1524.0000, -46.195
1524.4000, -45.843
1524.8000, -45.530
1525.2000, -45.181
1525.6000, -44.865
1526.0000, -44.565
1526.4000, -44.257
1526.8000, -43.989
1527.2000, -43.713
1527.6000, -43.461
1528.0000, -43.244
1528.4000, -43.016
1528.8000, -42.827
1529.2000, -42.639
1529.6000, -42.469
1530.0000, -42.300
1530.4000, -42.142
1530.8000, -42.000
1531.2000, -41.851
1531.6000, -41.701
1532.0000, -41.561
1532.4000, -41.430
1532.8000, -41.302
1533.2000, -41.195
1533.6000, -41.091
1534.0000, -40.994
1534.4000, -40.905
1534.8000, -40.831
1535.2000, -40.754
1535.6000, -40.687
1536.0000, -40.630
1536.4000, -40.575
1536.8000, -40.531
1537.2000, -40.490
1537.6000, -40.459
1538.0000, -40.427
1538.4000, -40.393
1538.8000, -40.354
1539.2000, -40.313
1539.6000, -40.258
1540.0000, -40.193
1540.4000, -40.110
1540.8000, -39.995
1541.2000, -39.864
1541.6000, -39.702
1542.0000, -39.521
1542.4000, -39.307
1542.8000, -39.079
1543.2000, -38.828
1543.6000, -38.567
1544.0000, -38.295
1544.4000, -38.021
1544.8000, -37.760
1545.2000, -37.507
1545.6000, -37.270
1546.0000, -37.048
1546.4000, -36.847
1546.8000, -36.667
1547.2000, -36.500
1547.6000, -36.354
1548.0000, -36.229
1548.4000, -36.127
1548.8000, -36.057
1549.2000, -36.014
1549.6000, -35.998
1550.0000, -36.006
1550.4000, -36.036
1550.8000, -36.090
1551.2000, -36.167
1551.6000, -36.273
1552.0000, -36.421
1552.4000, -36.608
1552.8000, -36.849
1553.2000, -37.145
1553.6000, -37.503
1554.0000, -37.913
1554.4000, -38.386
1554.8000, -38.923
1555.2000, -39.534
1555.6000, -40.215
1556.0000, -40.976
1556.4000, -41.797
1556.8000, -42.670
1557.2000, -43.606
1557.6000, -44.579
1558.0000, -45.530
1558.4000, -46.365
1558.8000, -47.079
1559.2000, -47.524
1559.6000, -47.694
1560.0000, -47.666
1560.4000, -47.460
1560.8000, -47.165
1561.2000, -46.819
1561.6000, -46.486
1562.0000, -46.148
1562.4000, -45.855
1562.8000, -45.627
1563.2000, -45.506
1563.6000, -45.425
1564.0000, -45.452
1564.4000, -45.601
1564.8000, -45.812
1565.2000, -46.082
1565.6000, -46.433
1566.0000, -46.819
1566.4000, -47.256
1566.8000, -47.707
1567.2000, -48.197
1567.6000, -48.746
1568.0000, -49.237
1568.4000, -49.825
1568.8000, -50.323
1569.2000, -50.809
1569.6000, -51.052
1570.0000, -51.143
1570.4000, -51.097
1570.8000, -50.827
1571.2000, -50.603
1571.6000, -50.234
1572.0000, -49.942
1572.4000, -49.708
1572.8000, -49.423
1573.2000, -49.133
1573.6000, -48.801
1574.0000, -48.432
1574.4000, -48.089
1574.8000, -47.718
1575.2000, -47.362
1575.6000, -47.050
1576.0000, -46.802
1576.4000, -46.538
1576.8000, -46.299
1577.2000, -46.025
1577.6000, -45.731
1578.0000, -45.391
1578.4000, -45.066
1578.8000, -44.752
1579.2000, -44.397
1579.6000, -44.014
1580.0000, -43.597
1580.4000, -43.122
1580.8000, -42.643
1581.2000, -42.146
1581.6000, -41.628
1582.0000, -41.148
1582.4000, -40.674
1582.8000, -40.214
1583.2000, -39.747
1583.6000, -39.284
1584.0000, -38.845
1584.4000, -38.425
1584.8000, -38.030
1585.2000, -37.654
1585.6000, -37.312
1586.0000, -37.001
1586.4000, -36.717
1586.8000, -36.457
1587.2000, -36.213
1587.6000, -35.992
1588.0000, -35.779
1588.4000, -35.583
1588.8000, -35.394
1589.2000, -35.225
1589.6000, -35.072
1590.0000, -34.936
1590.4000, -34.813
1590.8000, -34.707
1591.2000, -34.605
1591.6000, -34.519
1592.0000, -34.447
1592.4000, -34.384
1592.8000, -34.338
1593.2000, -34.306
1593.6000, -34.288
1594.0000, -34.279
1594.4000, -34.276
1594.8000, -34.282
1595.2000, -34.292
1595.6000, -34.314
1596.0000, -34.344
1596.4000, -34.390
1596.8000, -34.448
1597.2000, -34.522
1597.6000, -34.604
1598.0000, -34.693
1598.4000, -34.788
1598.8000, -34.896
1599.2000, -35.017
1599.6000, -35.150
1600.0000, -35.307
1600.4000, -35.478
1600.8000, -35.672
1601.2000, -35.875
1601.6000, -36.091
1602.0000, -36.325
1602.4000, -36.563
1602.8000, -36.809
1603.2000, -37.061
1603.6000, -37.325
1604.0000, -37.597
1604.4000, -37.885
1604.8000, -38.190
1605.2000, -38.504
1605.6000, -38.814
1606.0000, -39.125
1606.4000, -39.429
1606.8000, -39.716
1607.2000, -39.995
1607.6000, -40.265
1608.0000, -40.526
1608.4000, -40.769
1608.8000, -40.996
1609.2000, -41.196
1609.6000, -41.356
1610.0000, -41.480
1610.4000, -41.576
1610.8000, -41.632
1611.2000, -41.706
1611.6000, -41.739
1612.0000, -41.797
1612.4000, -41.846
1612.8000, -41.920
1613.2000, -41.998
1613.6000, -42.101
1614.0000, -42.211
1614.4000, -42.351
1614.8000, -42.517
1615.2000, -42.711
1615.6000, -42.945
1616.0000, -43.183
1616.4000, -43.451
1616.8000, -43.728
1617.2000, -44.013
1617.6000, -44.277
1618.0000, -44.530
1618.4000, -44.712
1618.8000, -44.872
1619.2000, -44.946
1619.6000, -44.953
1620.0000, -44.874
1620.4000, -44.720
1620.8000, -44.482
1621.2000, -44.143
1621.6000, -43.750
1622.0000, -43.314
1622.4000, -42.852
1622.8000, -42.386
1623.2000, -41.926
1623.6000, -41.485
1624.0000, -41.067
1624.4000, -40.682
1624.8000, -40.324
1625.2000, -39.989
1625.6000, -39.701
1626.0000, -39.449
1626.4000, -39.231
1626.8000, -39.053
1627.2000, -38.913
1627.6000, -38.811
1628.0000, -38.742
1628.4000, -38.696
1628.8000, -38.696
1629.2000, -38.716
1629.6000, -38.772
1630.0000, -38.854
1630.4000, -38.980
1630.8000, -39.139
1631.2000, -39.336
1631.6000, -39.564
1632.0000, -39.824
1632.4000, -40.117
1632.8000, -40.429
1633.2000, -40.758
1633.6000, -41.090
1634.0000, -41.424
1634.4000, -41.735
1634.8000, -42.023
1635.2000, -42.239
1635.6000, -42.382
1636.0000, -42.445
1636.4000, -42.400
1636.8000, -42.259
1637.2000, -42.053
1637.6000, -41.766
1638.0000, -41.435
1638.4000, -41.062
1638.8000, -40.676
1639.2000, -40.281
1639.6000, -39.902
1640.0000, -39.537
1640.4000, -39.195
1640.8000, -38.878
1641.2000, -38.592
1641.6000, -38.343
1642.0000, -38.127
1642.4000, -37.942
1642.8000, -37.798
1643.2000, -37.705
1643.6000, -37.639
1644.0000, -37.619
1644.4000, -37.637
1644.8000, -37.701
1645.2000, -37.798
1645.6000, -37.935
1646.0000, -38.111
1646.4000, -38.320
1646.8000, -38.563
1647.2000, -38.832
1647.6000, -39.124
1648.0000, -39.434
1648.4000, -39.754
1648.8000, -40.070
1649.2000, -40.387
1649.6000, -40.682
1650.0000, -40.967
1650.4000, -41.228
1650.8000, -41.464
1651.2000, -41.684
1651.6000, -41.872
1652.0000, -42.053
1652.4000, -42.212
1652.8000, -42.367
1653.2000, -42.515
1653.6000, -42.664
1654.0000, -42.811
1654.4000, -42.944
1654.8000, -43.092
1655.2000, -43.207
1655.6000, -43.310
1656.0000, -43.407
1656.4000, -43.452
1656.8000, -43.453
1657.2000, -43.440
1657.6000, -43.369
1658.0000, -43.245
1658.4000, -43.079
1658.8000, -42.882
1659.2000, -42.656
1659.6000, -42.402
1660.0000, -42.141
1660.4000, -41.875
1660.8000, -41.613
1661.2000, -41.372
1661.6000, -41.142
1662.0000, -40.939
1662.4000, -40.766
1662.8000, -40.620
1663.2000, -40.497
1663.6000, -40.397
1664.0000, -40.331
1664.4000, -40.256
1664.8000, -40.207
1665.2000, -40.146
1665.6000, -40.078
1666.0000, -40.003
1666.4000, -39.909
1666.8000, -39.795
1667.2000, -39.660
1667.6000, -39.517
1668.0000, -39.359
1668.4000, -39.204
1668.8000, -39.054
1669.2000, -38.922
1669.6000, -38.800
1670.0000, -38.709
1670.4000, -38.633
1670.8000, -38.578
1671.2000, -38.538
1671.6000, -38.506
1672.0000, -38.490
1672.4000, -38.467
1672.8000, -38.437
1673.2000, -38.394
1673.6000, -38.336
1674.0000, -38.260
1674.4000, -38.168
1674.8000, -38.059
1675.2000, -37.938
1675.6000, -37.817
1676.0000, -37.694
1676.4000, -37.577
1676.8000, -37.465
1677.2000, -37.362
1677.6000, -37.266
1678.0000, -37.183
1678.4000, -37.107
1678.8000, -37.033
1679.2000, -36.965
1679.6000, -36.897
1680.0000, -36.831
1680.4000, -36.763
1680.8000, -36.700
1681.2000, -36.636
1681.6000, -36.580
1682.0000, -36.531
1682.4000, -36.494
1682.8000, -36.466
1683.2000, -36.447
1683.6000, -36.441
1684.0000, -36.444
1684.4000, -36.453
1684.8000, -36.460
1685.2000, -36.472
1685.6000, -36.478
1686.0000, -36.476
1686.4000, -36.468
1686.8000, -36.452
1687.2000, -36.434
1687.6000, -36.399
1688.0000, -36.373
1688.4000, -36.342
1688.8000, -36.312
1689.2000, -36.281
1689.6000, -36.255
1690.0000, -36.233
1690.4000, -36.210
1690.8000, -36.193
1691.2000, -36.178
1691.6000, -36.168
1692.0000, -36.160
1692.4000, -36.153
1692.8000, -36.151
1693.2000, -36.151
1693.6000, -36.156
1694.0000, -36.161
1694.4000, -36.177
1694.8000, -36.187
1695.2000, -36.208
1695.6000, -36.216
1696.0000, -36.230
1696.4000, -36.237
1696.8000, -36.235
1697.2000, -36.234
1697.6000, -36.221
1698.0000, -36.214
1698.4000, -36.203
1698.8000, -36.194
1699.2000, -36.183
1699.6000, -36.176
1700.0000, -36.177
1700.4000, -36.178
1700.8000, -36.187
1701.2000, -36.197
1701.6000, -36.215
1702.0000, -36.236
1702.4000, -36.257
1702.8000, -36.284
1703.2000, -36.308
1703.6000, -36.341
1704.0000, -36.372
1704.4000, -36.406
1704.8000, -36.439
1705.2000, -36.465
1705.6000, -36.491
1706.0000, -36.507
1706.4000, -36.522
1706.8000, -36.532
1707.2000, -36.545
1707.6000, -36.557
1708.0000, -36.570
1708.4000, -36.585
1708.8000, -36.602
1709.2000, -36.628
1709.6000, -36.651
1710.0000, -36.681
1710.4000, -36.711
1710.8000, -36.745
1711.2000, -36.782
1711.6000, -36.818
1712.0000, -36.862
1712.4000, -36.899
1712.8000, -36.946
1713.2000, -36.990
1713.6000, -37.032
1714.0000, -37.074
1714.4000, -37.109
1714.8000, -37.146
1715.2000, -37.183
1715.6000, -37.223
1716.0000, -37.266
1716.4000, -37.309
1716.8000, -37.357
1717.2000, -37.402
1717.6000, -37.452
1718.0000, -37.499
1718.4000, -37.549
1718.8000, -37.599
1719.2000, -37.651
1719.6000, -37.705
1720.0000, -37.754
1720.4000, -37.808
1720.8000, -37.846
1721.2000, -37.890
1721.6000, -37.933
1722.0000, -37.968
1722.4000, -38.009
1722.8000, -38.045
1723.2000, -38.089
1723.6000, -38.127
1724.0000, -38.171
1724.4000, -38.218
1724.8000, -38.266
1725.2000, -38.323
1725.6000, -38.378
1726.0000, -38.437
1726.4000, -38.495
1726.8000, -38.560
1727.2000, -38.621
1727.6000, -38.673
1728.0000, -38.740
1728.4000, -38.795
1728.8000, -38.849
1729.2000, -38.905
1729.6000, -38.957
1730.0000, -39.017
1730.4000, -39.066
1730.8000, -39.119
1731.2000, -39.169
1731.6000, -39.225
1732.0000, -39.279
1732.4000, -39.329
1732.8000, -39.387
1733.2000, -39.443
1733.6000, -39.496
1734.0000, -39.555
1734.4000, -39.607
1734.8000, -39.666
1735.2000, -39.711
1735.6000, -39.764
1736.0000, -39.812
1736.4000, -39.870
1736.8000, -39.918
1737.2000, -39.962
1737.6000, -40.014
1738.0000, -40.057
1738.4000, -40.104
1738.8000, -40.154
1739.2000, -40.201
1739.6000, -40.255
1740.0000, -40.300
1740.4000, -40.354
1740.8000, -40.404
1741.2000, -40.461
1741.6000, -40.499
1742.0000, -40.551
1742.4000, -40.605
1742.8000, -40.646
1743.2000, -40.698
1743.6000, -40.741
1744.0000, -40.785
1744.4000, -40.838
1744.8000, -40.880
1745.2000, -40.927
1745.6000, -40.970
1746.0000, -41.012
1746.4000, -41.057
1746.8000, -41.097
1747.2000, -41.149
1747.6000, -41.186
1748.0000, -41.222
1748.4000, -41.262
1748.8000, -41.296
1749.2000, -41.328
1749.6000, -41.358
1750.0000, -41.391
1750.4000, -41.417
1750.8000, -41.447
1751.2000, -41.469
1751.6000, -41.491
1752.0000, -41.518
1752.4000, -41.536
1752.8000, -41.557
1753.2000, -41.575
1753.6000, -41.591
1754.0000, -41.614
1754.4000, -41.637
1754.8000, -41.653
1755.2000, -41.673
1755.6000, -41.692
1756.0000, -41.714
1756.4000, -41.738
1756.8000, -41.763
1757.2000, -41.780
1757.6000, -41.799
1758.0000, -41.829
1758.4000, -41.850
1758.8000, -41.879
1759.2000, -41.900
1759.6000, -41.926
1760.0000, -41.960
1760.4000, -41.978
1760.8000, -42.005
1761.2000, -42.021
1761.6000, -42.048
1762.0000, -42.063
1762.4000, -42.083
1762.8000, -42.109
1763.2000, -42.117
1763.6000, -42.138
1764.0000, -42.156
1764.4000, -42.155
1764.8000, -42.177
1765.2000, -42.179
1765.6000, -42.197
1766.0000, -42.206
1766.4000, -42.214
1766.8000, -42.234
1767.2000, -42.240
1767.6000, -42.256
1768.0000, -42.276
1768.4000, -42.288
1768.8000, -42.307
1769.2000, -42.330
1769.6000, -42.351
1770.0000, -42.372
1770.4000, -42.396
1770.8000, -42.426
1771.2000, -42.445
1771.6000, -42.473
1772.0000, -42.498
1772.4000, -42.531
1772.8000, -42.557
1773.2000, -42.584
1773.6000, -42.613
1774.0000, -42.632
1774.4000, -42.649
1774.8000, -42.673
1775.2000, -42.683
1775.6000, -42.699
1776.0000, -42.719
1776.4000, -42.734
1776.8000, -42.743
1777.2000, -42.750
1777.6000, -42.772
1778.0000, -42.779
1778.4000, -42.788
1778.8000, -42.805
1779.2000, -42.812
1779.6000, -42.831
1780.0000, -42.857
1780.4000, -42.869
1780.8000, -42.900
1781.2000, -42.920
1781.6000, -42.940
1782.0000, -42.972
1782.4000, -42.988
1782.8000, -43.027
1783.2000, -43.056
1783.6000, -43.086
1784.0000, -43.138
1784.4000, -43.162
1784.8000, -43.211
1785.2000, -43.248
1785.6000, -43.283
1786.0000, -43.332
1786.4000, -43.365
1786.8000, -43.409
1787.2000, -43.445
1787.6000, -43.481
1788.0000, -43.537
1788.4000, -43.558
1788.8000, -43.602
1789.2000, -43.634
1789.6000, -43.664
1790.0000, -43.701
1790.4000, -43.724
1790.8000, -43.770
1791.2000, -43.791
1791.6000, -43.819
1792.0000, -43.858
1792.4000, -43.874
1792.8000, -43.903
1793.2000, -43.926
1793.6000, -43.956
1794.0000, -43.982
1794.4000, -44.002
1794.8000, -44.036
1795.2000, -44.058
1795.6000, -44.093
1796.0000, -44.124
1796.4000, -44.151
1796.8000, -44.183
1797.2000, -44.220
1797.6000, -44.240
1798.0000, -44.284
1798.4000, -44.310
1798.8000, -44.360
1799.2000, -44.406
1799.6000, -44.455
1800.0000, -44.519
1800.4000, -44.562
1800.8000, -44.616
1801.2000, -44.667
1801.6000, -44.718
1802.0000, -44.758
1802.4000, -44.794
1802.8000, -44.833
1803.2000, -44.868
1803.6000, -44.898
1804.0000, -44.932
1804.4000, -44.976
1804.8000, -45.033
1805.2000, -45.093
1805.6000, -45.160
1806.0000, -45.202
1806.4000, -45.252
1806.8000, -45.283
1807.2000, -45.318
1807.6000, -45.331
1808.0000, -45.369
1808.4000, -45.411
1808.8000, -45.431
1809.2000, -45.464
1809.6000, -45.511
1810.0000, -45.557
1810.4000, -45.607
1810.8000, -45.631
1811.2000, -45.683
1811.6000, -45.716
1812.0000, -45.762
1812.4000, -45.773
1812.8000, -45.791
1813.2000, -45.830
1813.6000, -45.844
1814.0000, -45.858
1814.4000, -45.889
1814.8000, -45.988
1815.2000, -46.038
1815.6000, -46.086
1816.0000, -46.136
1816.4000, -46.151
1816.8000, -46.143
1817.2000, -46.154
1817.6000, -46.201
1818.0000, -46.244
1818.4000, -46.259
1818.8000, -46.297
1819.2000, -46.386
1819.6000, -46.536
1820.0000, -46.602
1820.4000, -46.685
1820.8000, -46.773
1821.2000, -46.890
1821.6000, -46.836
1822.0000, -46.794
1822.4000, -46.839
1822.8000, -46.824
1823.2000, -46.836
1823.6000, -46.841
1824.0000, -46.853
1824.4000, -46.916
1824.8000, -46.961
1825.2000, -47.107
1825.6000, -47.308
1826.0000, -47.379
1826.4000, -47.421
1826.8000, -47.464
1827.2000, -47.507
1827.6000, -47.380
1828.0000, -47.425
1828.4000, -47.470
1828.8000, -47.512
1829.2000, -47.630
1829.6000, -47.651
1830.0000, -47.667
1830.4000, -47.781
1830.8000, -47.828
1831.2000, -47.835
1831.6000, -47.867
1832.0000, -47.932
1832.4000, -47.875
1832.8000, -47.814
1833.2000, -47.872
1833.6000, -47.906
1834.0000, -47.930
1834.4000, -48.047
1834.8000, -48.087
1835.2000, -48.230
1835.6000, -48.422
1836.0000, -48.479
1836.4000, -48.402
1836.8000, -48.601
1837.2000, -48.731
1837.6000, -48.577
1838.0000, -48.598
1838.4000, -48.637
1838.8000, -48.689
1839.2000, -48.738
1839.6000, -48.792
1840.0000, -48.809
1840.4000, -48.903
1840.8000, -49.054
1841.2000, -49.125
1841.6000, -49.164
1842.0000, -49.178
1842.4000, -49.253
1842.8000, -49.235
1843.2000, -49.122
1843.6000, -49.031
1844.0000, -49.048
1844.4000, -49.058
1844.8000, -49.115
1845.2000, -49.145
1845.6000, -49.231
1846.0000, -49.453
1846.4000, -49.654
1846.8000, -49.727
1847.2000, -49.958
1847.6000, -50.104
1848.0000, -50.176
1848.4000, -49.929
1848.8000, -49.937
1849.2000, -49.887
1849.6000, -49.866
1850.0000, -49.811
1850.4000, -49.834
1850.8000, -49.875
1851.2000, -49.890
1851.6000, -49.878
1852.0000, -49.981
1852.4000, -50.078
1852.8000, -50.171
1853.2000, -50.439
1853.6000, -50.492
1854.0000, -50.481
1854.4000, -50.417
1854.8000, -50.490
1855.2000, -50.347
1855.6000, -50.397
1856.0000, -50.559
1856.4000, -50.612
1856.8000, -50.712
1857.2000, -50.750
1857.6000, -50.760
1858.0000, -50.655
1858.4000, -50.646
1858.8000, -50.837
1859.2000, -51.002
1859.6000, -51.093
1860.0000, -51.212
1860.4000, -51.253
1860.8000, -51.219
1861.2000, -51.057
1861.6000, -51.094
1862.0000, -51.047
1862.4000, -51.063
1862.8000, -51.167
1863.2000, -51.235
1863.6000, -51.334
1864.0000, -51.385
1864.4000, -51.420
1864.8000, -51.477
1865.2000, -51.500
1865.6000, -51.490
1866.0000, -51.530
1866.4000, -51.594
1866.8000, -51.837
1867.2000, -52.010
1867.6000, -52.139
1868.0000, -52.172
1868.4000, -52.204
1868.8000, -52.278
1869.2000, -52.186
1869.6000, -52.109
1870.0000, -52.434
1870.4000, -52.628
1870.8000, -52.645
1871.2000, -52.633
1871.6000, -52.697
1872.0000, -52.775
1872.4000, -52.679
1872.8000, -52.823
1873.2000, -52.815
1873.6000, -52.946
1874.0000, -52.930
1874.4000, -52.814
1874.8000, -52.792
1875.2000, -52.754
1875.6000, -52.788
1876.0000, -52.979
1876.4000, -53.051
1876.8000, -52.966
1877.2000, -53.131
1877.6000, -53.162
1878.0000, -53.144
1878.4000, -52.911
1878.8000, -52.947
1879.2000, -52.997
1879.6000, -53.070
1880.0000, -53.180
1880.4000, -53.182
1880.8000, -53.262
1881.2000, -53.404
1881.6000, -53.440
1882.0000, -53.494
1882.4000, -53.468
1882.8000, -53.515
1883.2000, -53.676
1883.6000, -53.808
1884.0000, -53.878
1884.4000, -53.957
1884.8000, -54.017
1885.2000, -53.988
1885.6000, -53.901
1886.0000, -53.965
1886.4000, -54.096
1886.8000, -54.064
1887.2000, -54.206
1887.6000, -54.289
1888.0000, -54.295
1888.4000, -54.286
1888.8000, -54.312
1889.2000, -54.482
1889.6000, -54.547
1890.0000, -54.636
1890.4000, -54.744
1890.8000, -54.714
1891.2000, -54.855
1891.6000, -54.737
1892.0000, -54.861
1892.4000, -54.909
1892.8000, -54.944
1893.2000, -55.060
1893.6000, -55.021
1894.0000, -55.053
1894.4000, -55.164
1894.8000, -55.146
1895.2000, -55.142
1895.6000, -55.298
1896.0000, -55.288
1896.4000, -55.298
1896.8000, -55.447
1897.2000, -55.608
1897.6000, -55.702
1898.0000, -55.762
1898.4000, -55.801
1898.8000, -56.077
1899.2000, -55.959
1899.6000, -56.223
1900.0000, -56.276
1900.4000, -56.270
1900.8000, -56.182
1901.2000, -56.179
1901.6000, -56.163
1902.0000, -56.212
1902.4000, -56.281
1902.8000, -56.328
1903.2000, -56.332
1903.6000, -56.476
1904.0000, -56.330
1904.4000, -56.539
1904.8000, -56.660
1905.2000, -56.733
1905.6000, -56.731
1906.0000, -57.021
1906.4000, -56.812
1906.8000, -56.898
1907.2000, -56.741
1907.6000, -56.996
1908.0000, -56.705
1908.4000, -56.801
1908.8000, -56.875
1909.2000, -56.978
1909.6000, -57.126
1910.0000, -57.020
1910.4000, -57.106
1910.8000, -57.387
1911.2000, -57.327
1911.6000, -57.315
1912.0000, -57.519
1912.4000, -57.488
1912.8000, -57.860
1913.2000, -57.814
1913.6000, -57.748
1914.0000, -58.050
1914.4000, -57.913
1914.8000, -57.826
1915.2000, -57.817
1915.6000, -57.941
1916.0000, -57.831
1916.4000, -58.208
1916.8000, -57.933
1917.2000, -58.042
1917.6000, -58.005
1918.0000, -58.061
1918.4000, -58.172
1918.8000, -58.194
1919.2000, -58.348
1919.6000, -58.452
1920.0000, -58.501
1920.4000, -58.803
1920.8000, -58.936
1921.2000, -58.701
1921.6000, -58.759
1922.0000, -58.340
1922.4000, -58.322
1922.8000, -58.492
1923.2000, -58.685
1923.6000, -58.660
1924.0000, -58.805
1924.4000, -58.640
1924.8000, -58.750
1925.2000, -59.030
1925.6000, -58.891
1926.0000, -59.054
1926.4000, -59.382
1926.8000, -59.234
1927.2000, -59.347
1927.6000, -59.569
1928.0000, -59.803
1928.4000, -59.612
1928.8000, -59.783
1929.2000, -59.421
1929.6000, -59.956
1930.0000, -59.741
1930.4000, -59.853
1930.8000, -59.855
1931.2000, -60.070
1931.6000, -59.981
1932.0000, -60.149
1932.4000, -59.901
1932.8000, -60.188
1933.2000, -60.292
1933.6000, -60.357
1934.0000, -60.138
1934.4000, -60.355
1934.8000, -60.798
1935.2000, -60.462
1935.6000, -60.376
1936.0000, -60.541
1936.4000, -60.462
1936.8000, -60.922
1937.2000, -60.770
1937.6000, -60.396
1938.0000, -60.624
1938.4000, -60.552
1938.8000, -60.796
1939.2000, -60.594
1939.6000, -60.828
1940.0000, -61.098
1940.4000, -61.411
1940.8000, -61.273
1941.2000, -60.927
1941.6000, -61.189
1942.0000, -61.059
1942.4000, -61.545
1942.8000, -61.227
1943.2000, -61.317
1943.6000, -61.473
1944.0000, -61.748
1944.4000, -61.708
1944.8000, -61.765
1945.2000, -61.679
1945.6000, -61.899
1946.0000, -61.924
1946.4000, -62.301
1946.8000, -61.911
1947.2000, -62.128
1947.6000, -62.353
1948.0000, -62.224
1948.4000, -62.361
1948.8000, -62.026
1949.2000, -62.388
1949.6000, -62.094
1950.0000, -62.285
1950.4000, -62.944
1950.8000, -62.604
1951.2000, -62.512
1951.6000, -62.972
1952.0000, -62.355
1952.4000, -62.458
1952.8000, -63.200
1953.2000, -62.559
1953.6000, -62.486
1954.0000, -63.124
1954.4000, -62.883
1954.8000, -62.944
1955.2000, -63.764
1955.6000, -62.772
1956.0000, -63.393
1956.4000, -63.422
1956.8000, -63.322
1957.2000, -63.406
1957.6000, -63.322
1958.0000, -63.464
1958.4000, -63.556
1958.8000, -63.562
1959.2000, -63.835
1959.6000, -63.732
1960.0000, -63.844
1960.4000, -63.709
1960.8000, -63.928
1961.2000, -64.018
1961.6000, -64.417
1962.0000, -64.422
1962.4000, -64.185
1962.8000, -64.239
1963.2000, -63.408
1963.6000, -64.451
1964.0000, -63.507
1964.4000, -64.929
1964.8000, -64.442
1965.2000, -64.542
1965.6000, -64.307
1966.0000, -64.769
1966.4000, -64.334
1966.8000, -64.042
1967.2000, -64.860
1967.6000, -65.538
1968.0000, -64.734
1968.4000, -64.939
1968.8000, -65.705
1969.2000, -65.350
1969.6000, -65.352
1970.0000, -65.223
1970.4000, -64.972
1970.8000, -65.297
1971.2000, -66.153
1971.6000, -64.878
1972.0000, -65.660
1972.4000, -65.584
1972.8000, -65.238
1973.2000, -67.595
1973.6000, -66.127
1974.0000, -65.476
1974.4000, -67.936
1974.8000, -65.665
1975.2000, -65.777
1975.6000, -66.344
1976.0000, -65.016
1976.4000, -66.262
1976.8000, -66.410
1977.2000, -66.474
1977.6000, -66.443
1978.0000, -66.214
1978.4000, -66.457
1978.8000, -65.879
1979.2000, -66.786
1979.6000, -66.644
1980.0000, -66.959
1980.4000, -65.523
1980.8000, -66.629
1981.2000, -66.591
1981.6000, -67.018
1982.0000, -67.664
1982.4000, -67.919
1982.8000, -67.748
1983.2000, -65.915
1983.6000, -66.397
1984.0000, -67.749
1984.4000, -67.254
1984.8000, -67.031
1985.2000, -65.896
1985.6000, -66.770
1986.0000, -67.108
1986.4000, -67.263
1986.8000, -66.297
1987.2000, -66.721
1987.6000, -67.371
1988.0000, -66.698
1988.4000, -68.135
1988.8000, -66.496
1989.2000, -67.270
1989.6000, -67.620
1990.0000, -68.121
1990.4000, -69.284
1990.8000, -66.824
1991.2000, -68.478
1991.6000, -68.305
1992.0000, -67.096
1992.4000, -69.000
1992.8000, -68.242
1993.2000, -66.748
1993.6000, -67.080
1994.0000, -67.254
1994.4000, -66.612
1994.8000, -67.476
1995.2000, -69.231
1995.6000, -67.941
1996.0000, -70.819
1996.4000, -66.198
1996.8000, -67.356
1997.2000, -68.756
1997.6000, -68.079
1998.0000, -69.621
1998.4000, -69.950
1998.8000, -68.041
1999.2000, -67.155
1999.6000, -67.710
2000.0000, -67.851
2000.4000, -69.348
2000.8000, -67.282
2001.2000, -69.220
2001.6000, -67.682
2002.0000, -67.763
2002.4000, -69.072
2002.8000, -67.634
2003.2000, -68.464
2003.6000, -68.695
2004.0000, -67.610
2004.4000, -68.682
2004.8000, -72.418
2005.2000, -67.595
2005.6000, -69.178
2006.0000, -67.691
2006.4000, -67.956
2006.8000, -70.819
2007.2000, -68.077
2007.6000, -68.521
2008.0000, -69.057
2008.4000, -71.543
2008.8000, -68.311
2009.2000, -69.410
2009.6000, -71.204
2010.0000, -68.281
2010.4000, -69.869
2010.8000, -70.131
2011.2000, -69.754
2011.6000, -69.753
2012.0000, -69.031
2012.4000, -70.175
2012.8000, -68.029
2013.2000, -71.322
2013.6000, -69.057
2014.0000, -69.244
2014.4000, -71.128
2014.8000, -69.006
2015.2000, -69.226
2015.6000, -76.173
2016.0000, -68.569
2016.4000, -70.089
2016.8000, -71.272
2017.2000, -69.020
2017.6000, -70.183
2018.0000, -70.969
2018.4000, -70.612
2018.8000, -70.064
2019.2000, -69.646
2019.6000, -69.674
2020.0000, -68.988
2020.4000, -70.647
2020.8000, -68.410
2021.2000, -72.075
2021.6000, -68.063
2022.0000, -70.829
2022.4000, -68.837
2022.8000, -73.443
2023.2000, -70.284
2023.6000, -68.666
2024.0000, -69.921
2024.4000, -69.433
2024.8000, -71.825
2025.2000, -70.185
2025.6000, -68.739
2026.0000, -74.204
2026.4000, -70.388
2026.8000, -70.303
2027.2000, -69.685
2027.6000, -72.667
2028.0000, -69.773
2028.4000, -77.217
2028.8000, -69.114
2029.2000, -70.667
2029.6000, -71.332
2030.0000, -70.330
2030.4000, -71.827
2030.8000, -72.062
2031.2000, -71.795
2031.6000, -68.679
2032.0000, -69.655
2032.4000, -72.366
2032.8000, -71.645
2033.2000, -70.382
2033.6000, -70.082
2034.0000, -69.390
2034.4000, -69.194
2034.8000, -75.506
2035.2000, -72.324
2035.6000, -69.780
2036.0000, -69.500
2036.4000, -70.269
2036.8000, -71.454
2037.2000, -78.602
2037.6000, -68.796
2038.0000, -68.873
2038.4000, -75.242
2038.8000, -72.451
2039.2000, -72.192
2039.6000, -71.766
2040.0000, -70.951
2040.4000, -70.875
2040.8000, -72.741
2041.2000, -75.179
2041.6000, -89.041
2042.0000, -71.441
2042.4000, -70.693
2042.8000, -68.920
2043.2000, -74.366
2043.6000, -71.092
2044.0000, -69.349
2044.4000, -78.354
2044.8000, -76.206
2045.2000, -79.868
2045.6000,-210.000
2046.0000, -71.356
2046.4000, -69.464
2046.8000, -71.581
2047.2000,-210.000
2047.6000, -69.880
2048.0000, -73.869
2048.4000, -70.638
2048.8000, -69.292
2049.2000, -71.466
2049.6000, -71.285
2050.0000, -72.836
2050.4000, -77.600
2050.8000,-210.000
2051.2000, -71.768
2051.6000, -74.539
2052.0000,-210.000
2052.4000, -70.709
2052.8000, -73.038
2053.2000, -72.804
2053.6000, -73.492
2054.0000, -73.028
2054.4000,-210.000
2054.8000, -74.804
2055.2000, -73.802
2055.6000, -72.844
2056.0000, -74.056
2056.4000, -73.551
2056.8000, -71.292
2057.2000, -71.226
2057.6000, -74.620
2058.0000, -74.013
2058.4000, -74.197
2058.8000, -70.165
2059.2000, -70.536
2059.6000, -73.207
2060.0000, -72.784
2060.4000, -84.369
2060.8000, -71.021
2061.2000,-210.000
2061.6000,-210.000
2062.0000, -80.208
2062.4000, -73.621
2062.8000, -70.426
2063.2000, -75.821
2063.6000, -72.680
2064.0000, -71.308
2064.4000, -71.611
2064.8000, -74.180
2065.2000, -73.581
2065.6000, -74.786
2066.0000, -73.567
2066.4000, -77.892
2066.8000,-210.000
2067.2000, -76.400
2067.6000, -75.629
2068.0000,-210.000
2068.4000,-210.000
2068.8000, -82.503
2069.2000, -78.250
2069.6000,-210.000
2070.0000,-210.000
2070.4000, -68.953
2070.8000,-210.000
2071.2000,-210.000
2071.6000, -73.702
2072.0000, -73.518
2072.4000, -74.666
2072.8000, -73.461
2073.2000,-210.000
2073.6000, -70.935
2074.0000, -76.835
2074.4000, -74.800
2074.8000, -77.804
2075.2000, -72.303
2075.6000, -71.854
2076.0000, -77.679
2076.4000, -70.008
2076.8000,-210.000
2077.2000,-210.000
2077.6000, -74.374
2078.0000, -70.368
2078.4000, -77.161
2078.8000, -70.489
2079.2000, -75.428
2079.6000, -73.061
2080.0000, -72.334
2080.4000, -80.679
2080.8000, -72.082
2081.2000, -77.854
2081.6000, -75.751
2082.0000,-210.000
2082.4000, -74.585
2082.8000,-210.000
2083.2000, -71.878
2083.6000,-210.000
2084.0000, -78.895
2084.4000, -73.283
2084.8000, -71.986
2085.2000,-210.000
2085.6000, -73.475
2086.0000, -73.983
2086.4000, -74.712
2086.8000, -77.278
2087.2000,-210.000
2087.6000, -82.672
2088.0000,-210.000
2088.4000, -76.336
2088.8000, -71.224
2089.2000, -77.766
2089.6000,-210.000
2090.0000, -77.034
2090.4000, -79.484
2090.8000, -71.650
2091.2000, -69.498
2091.6000, -74.751
2092.0000,-210.000
2092.4000,-210.000
2092.8000, -71.864
2093.2000, -80.142
2093.6000, -74.086
2094.0000, -73.995
2094.4000,-210.000
2094.8000, -73.411
2095.2000, -73.554
2095.6000,-210.000
2096.0000, -73.578
2096.4000, -86.497
2096.8000, -75.498
2097.2000, -73.522
2097.6000, -80.329
2098.0000,-210.000
2098.4000, -74.018
2098.8000, -77.602
2099.2000,-210.000
2099.6000, -77.635
2100.0000,-210.000
2100.4000, -71.873
2100.8000, -80.847
2101.2000,-210.000
2101.6000, -71.971
2102.0000, -73.120
2102.4000, -80.793
2102.8000, -71.428
2103.2000, -83.462
2103.6000, -74.622
2104.0000, -71.337
2104.4000, -79.088
2104.8000, -75.008
2105.2000, -75.324
2105.6000,-210.000
2106.0000, -72.199
2106.4000, -76.733
2106.8000, -81.909
2107.2000,-210.000
2107.6000, -73.333
2108.0000,-210.000
2108.4000, -77.519
2108.8000, -70.690
2109.2000, -75.059
2109.6000, -81.810
2110.0000,-210.000
2110.4000, -73.734
2110.8000, -70.702
2111.2000,-210.000
2111.6000, -73.016
2112.0000, -71.683
2112.4000, -71.715
2112.8000, -73.259
2113.2000,-210.000
2113.6000, -77.620
2114.0000, -72.839
2114.4000,-210.000
2114.8000, -72.413
2115.2000,-210.000
2115.6000,-210.000
2116.0000,-210.000
2116.4000, -73.560
2116.8000, -81.227
2117.2000,-210.000
2117.6000, -77.143
2118.0000, -71.477
2118.4000,-210.000
2118.8000,-210.000
2119.2000,-210.000
2119.6000, -70.662
2120.0000,-210.000
2120.4000, -73.241
2120.8000, -77.843
2121.2000, -75.943
2121.6000, -86.076
2122.0000, -74.908
2122.4000,-210.000
2122.8000, -75.645
2123.2000, -73.884
2123.6000, -78.359
2124.0000,-210.000
2124.4000,-210.000
2124.8000,-210.000
2125.2000, -71.741
2125.6000, -80.003
2126.0000,-210.000
2126.4000, -85.081
2126.8000, -73.304
2127.2000,-210.000
2127.6000, -73.332
2128.0000, -77.664
2128.4000, -71.036
2128.8000, -85.973
2129.2000, -80.639
2129.6000, -75.703
2130.0000, -75.258
2130.4000,-210.000
2130.8000, -73.757
2131.2000,-210.000
2131.6000, -77.371
2132.0000, -76.871
2132.4000,-210.000
2132.8000,-210.000
2133.2000, -73.904
2133.6000, -72.245
2134.0000, -73.449
2134.4000,-210.000
2134.8000, -73.229
2135.2000, -72.822
2135.6000, -72.907
2136.0000,-210.000
2136.4000,-210.000
2136.8000,-210.000
2137.2000, -74.774
2137.6000,-210.000
2138.0000, -75.177
2138.4000,-210.000
2138.8000, -72.510
2139.2000, -75.195
2139.6000, -73.824
2140.0000,-210.000
2140.4000,-210.000
2140.8000,-210.000
2141.2000, -73.640
2141.6000, -74.447
2142.0000, -81.467
2142.4000, -72.222
2142.8000, -88.812
2143.2000,-210.000
2143.6000, -72.429
2144.0000,-210.000
2144.4000, -75.647
2144.8000, -82.343
2145.2000,-210.000
2145.6000, -73.040
2146.0000, -75.359
2146.4000, -79.612
2146.8000, -81.988
2147.2000, -71.984
2147.6000,-210.000
2148.0000,-210.000
2148.4000,-210.000
2148.8000, -81.278
2149.2000,-210.000
2149.6000, -76.340
2150.0000, -82.551
2150.4000,-210.000
2150.8000,-210.000
2151.2000, -83.753
2151.6000,-210.000
2152.0000, -71.826
2152.4000,-210.000
2152.8000, -80.842
2153.2000,-210.000
2153.6000,-210.000
2154.0000, -79.944
2154.4000, -78.351
2154.8000, -84.161
2155.2000, -77.077
2155.6000,-210.000
2156.0000, -78.279
2156.4000, -77.866
2156.8000, -77.688
2157.2000,-210.000
2157.6000,-210.000
2158.0000, -77.198
2158.4000, -72.466
2158.8000,-210.000
2159.2000, -73.760
2159.6000, -74.404
2160.0000, -84.819
2160.4000, -78.656
2160.8000, -75.929
2161.2000, -76.857
2161.6000,-210.000
2162.0000, -73.412
2162.4000,-210.000
2162.8000, -73.833
2163.2000,-210.000
2163.6000, -74.307
2164.0000,-210.000
2164.4000, -72.904
2164.8000, -88.391
2165.2000, -72.676
2165.6000, -77.480
2166.0000, -70.524
2166.4000,-210.000
2166.8000,-210.000
2167.2000,-210.000
2167.6000, -72.295
2168.0000, -76.906
2168.4000,-210.000
2168.8000, -76.005
2169.2000, -72.375
2169.6000,-210.000
2170.0000, -79.156
2170.4000, -75.076
2170.8000,-210.000
2171.2000,-210.000
2171.6000,-210.000
2172.0000, -83.568
2172.4000, -71.785
2172.8000,-210.000
2173.2000,-210.000
2173.6000,-210.000
2174.0000,-210.000
2174.4000,-210.000
2174.8000, -74.205
2175.2000, -80.680
2175.6000, -72.160
2176.0000, -76.075
2176.4000, -74.568
2176.8000,-210.000
2177.2000, -80.888
2177.6000, -82.641
2178.0000,-210.000
2178.4000, -94.484
2178.8000,-210.000
2179.2000,-210.000
2179.6000, -79.784
2180.0000,-210.000
2180.4000,-210.000
2180.8000, -78.217
2181.2000,-210.000
2181.6000,-210.000
2182.0000, -97.797
2182.4000,-210.000
2182.8000, -74.185
2183.2000, -74.268
2183.6000,-210.000
2184.0000, -80.758
2184.4000,-210.000
2184.8000,-210.000
2185.2000, -77.187
2185.6000, -80.218
2186.0000, -79.163
2186.4000,-210.000
2186.8000,-210.000
2187.2000, -78.665
2187.6000, -71.754
2188.0000, -75.359
2188.4000,-210.000
2188.8000,-210.000
2189.2000,-210.000
2189.6000, -86.948
2190.0000, -72.792
2190.4000, -73.118
2190.8000,-210.000
2191.2000, -77.314
2191.6000, -82.881
2192.0000, -73.966
2192.4000, -73.833
2192.8000,-210.000
2193.2000,-210.000
2193.6000,-210.000
2194.0000,-210.000
2194.4000, -82.960
2194.8000, -71.251
2195.2000, -72.827
2195.6000,-210.000
2196.0000,-210.000
2196.4000,-210.000
2196.8000,-210.000
2197.2000, -77.549
2197.6000,-210.000
2198.0000,-210.000
2198.4000, -75.134
2198.8000,-210.000
2199.2000,-210.000
2199.6000,-210.000
2200.0000, -81.606
2200.4000, -73.619
2200.8000, -76.535
2201.2000,-210.000
2201.6000, -76.469
2202.0000,-210.000
2202.4000,-210.000
2202.8000, -74.428
2203.2000, -75.505
2203.6000,-210.000
2204.0000,-210.000
2204.4000,-210.000
2204.8000, -75.194
2205.2000,-210.000
2205.6000,-210.000
2206.0000,-210.000
2206.4000, -77.621
2206.8000,-210.000
2207.2000, -75.360
2207.6000, -70.335
2208.0000,-210.000
2208.4000, -71.746
2208.8000, -74.279
2209.2000,-210.000
2209.6000, -81.371
2210.0000, -69.571
2210.4000,-210.000
2210.8000, -72.774
2211.2000, -74.889
2211.6000,-210.000
2212.0000,-210.000
2212.4000, -69.795
2212.8000,-210.000
2213.2000,-210.000
2213.6000,-210.000
2214.0000, -73.081
2214.4000,-210.000
2214.8000, -76.753
2215.2000,-210.000
2215.6000,-210.000
2216.0000, -74.222
2216.4000, -72.338
2216.8000,-210.000
2217.2000, -70.624
2217.6000,-210.000
2218.0000, -73.682
2218.4000, -79.026
2218.8000, -76.924
2219.2000, -74.390
2219.6000, -81.846
2220.0000,-210.000
2220.4000, -75.591
2220.8000, -72.062
2221.2000, -75.525
2221.6000,-210.000
2222.0000, -84.818
2222.4000,-210.000
2222.8000,-210.000
2223.2000,-210.000
2223.6000, -75.842
2224.0000,-210.000
2224.4000, -71.083
2224.8000, -90.541
2225.2000,-210.000
2225.6000, -71.562
2226.0000, -71.930
2226.4000, -71.639
2226.8000,-210.000
2227.2000,-210.000
2227.6000,-210.000
2228.0000,-210.000
2228.4000,-210.000
2228.8000, -85.275
2229.2000, -71.528
2229.6000, -77.595
2230.0000,-210.000
2230.4000, -81.321
2230.8000, -76.806
2231.2000, -80.742
2231.6000,-210.000
2232.0000, -73.040
2232.4000,-210.000
2232.8000, -74.164
2233.2000, -76.287
2233.6000,-210.000
2234.0000,-210.000
2234.4000,-210.000
2234.8000,-210.000
2235.2000,-210.000
2235.6000,-210.000
2236.0000,-210.000
2236.4000,-210.000
2236.8000,-210.000
2237.2000,-210.000
2237.6000,-210.000
2238.0000, -75.739
2238.4000, -74.633
2238.8000,-210.000
2239.2000,-210.000
2239.6000,-210.000
2240.0000,-210.000
2240.4000, -71.799
2240.8000, -73.422
2241.2000,-210.000
2241.6000, -69.833
2242.0000,-210.000
2242.4000,-210.000
2242.8000,-210.000
2243.2000, -81.862
2243.6000,-210.000
2244.0000, -72.434
2244.4000, -81.011
2244.8000,-210.000
2245.2000,-210.000
2245.6000, -77.458
2246.0000,-210.000
2246.4000,-210.000
2246.8000,-210.000
2247.2000,-210.000
2247.6000, -71.783
2248.0000,-210.000
2248.4000,-210.000
2248.8000, -77.371
2249.2000, -76.027
2249.6000,-210.000
2250.0000,-210.000
2250.4000, -71.403
2250.8000,-210.000
2251.2000,-210.000
2251.6000,-210.000
2252.0000,-210.000
2252.4000, -75.124
2252.8000,-210.000
2253.2000, -75.459
2253.6000, -76.405
2254.0000,-210.000
2254.4000, -74.332
2254.8000, -74.168
2255.2000,-210.000
2255.6000, -75.324
2256.0000, -73.231
2256.4000,-210.000
2256.8000, -73.268
2257.2000, -70.868
2257.6000, -71.707
2258.0000, -73.882
2258.4000,-210.000
2258.8000,-210.000
2259.2000,-210.000
2259.6000,-210.000
2260.0000, -79.776
2260.4000, -75.651
2260.8000,-210.000
2261.2000, -72.331
2261.6000,-210.000
2262.0000, -69.344
2262.4000, -75.976
2262.8000,-210.000
2263.2000,-210.000
2263.6000, -84.451
2264.0000,-210.000
2264.4000,-210.000
2264.8000, -74.157
2265.2000,-210.000
2265.6000,-210.000
2266.0000,-210.000
2266.4000,-210.000
2266.8000, -74.263
2267.2000, -75.763
2267.6000,-210.000
2268.0000,-210.000
2268.4000, -73.707
2268.8000,-210.000
2269.2000,-210.000
2269.6000,-210.000
2270.0000,-210.000
2270.4000, -74.231
2270.8000,-210.000
2271.2000,-210.000
2271.6000,-210.000
2272.0000,-210.000
2272.4000, -69.833
2272.8000,-210.000
2273.2000, -77.181
2273.6000,-210.000
2274.0000,-210.000
2274.4000,-210.000
2274.8000, -73.337
2275.2000,-210.000
2275.6000, -71.012
2276.0000, -82.525
2276.4000,-210.000
2276.8000,-210.000
2277.2000,-210.000
2277.6000,-210.000
2278.0000, -80.697
2278.4000,-210.000
2278.8000,-210.000
2279.2000,-210.000
2279.6000, -74.517
2280.0000,-210.000
2280.4000, -74.918
2280.8000, -75.760
2281.2000, -77.526
2281.6000,-210.000
2282.0000, -74.943
2282.4000, -82.049
2282.8000,-210.000
2283.2000, -72.296
2283.6000, -72.323
2284.0000, -80.359
2284.4000, -77.501
2284.8000,-210.000
2285.2000, -90.374
2285.6000, -77.399
2286.0000, -82.161
2286.4000, -73.974
2286.8000, -73.775
2287.2000, -78.864
2287.6000, -76.535
2288.0000,-210.000
2288.4000,-210.000
2288.8000,-210.000
2289.2000,-210.000
2289.6000, -84.338
2290.0000,-210.000
2290.4000, -79.676
2290.8000, -77.558
2291.2000,-210.000
2291.6000, -69.949
2292.0000,-210.000
2292.4000, -82.256
2292.8000,-210.000
2293.2000,-210.000
2293.6000, -71.830
2294.0000,-210.000
2294.4000, -79.650
2294.8000, -74.738
2295.2000,-210.000
2295.6000,-210.000
2296.0000,-210.000
2296.4000,-210.000
2296.8000, -86.213
2297.2000, -70.148
2297.6000,-210.000
2298.0000, -75.201
2298.4000,-210.000
2298.8000, -91.580
2299.2000, -71.663
2299.6000, -77.768
2300.0000, -76.084
